Folder: Randles-Sevcik/Dati/201027

File: CV_LTO-C_Al_slurrymia_01_1mVs_01_CV_C03.mpt
EC-Lab ASCII FILE
Nb header lines : 63

Cyclic Voltammetry

Run on channel : 3 (SN 6807)
User :
Electrode connection : standard
Ewe ctrl range : min = 0,00 V, max = 5,00 V
Ewe,I filtering : 50 kHz
Safety Limits :
	Do not start on E overload
Channel : Grounded
Acquisition started on : 10/27/2020 18:19:16
Saved on :
	File : CV_LTO-C_Al_slurrymia_01_1mVs_01_CV_C03.mpr
	Directory : C:\Users\labsuperfici\Desktop\Biologic\Users\Prisca Viviani\201027\
	Host : 10.78.33.0
Device : VSP-300 (SN 0638)
Address : USB
EC-Lab for windows v11.31 (software)
Internet server v11.30 (firmware)
Command interpretor v11.31 (firmware)
Electrode material :
Initial state :
Electrolyte :
Comments :
Cable : standard
Reference electrode : SCE Saturated Calomel Electrode (0,241 V)
Electrode surface area : 0,001 cm²
Characteristic mass : 0,001 g
Equivalent Weight : 0,000 g/eq.
Density : 0,000 g/cm3
Cycle Definition : Charge/Discharge alternance
Ei (V)              0,000
vs.                 Eoc
dE/dt               0,100
dE/dt unit          mV/s
E1 (V)              1,000
vs.                 Ref
Step percent        50
N                   10
E range min (V)     0,000
E range max (V)     5,000
I Range             Auto
I Range min         Unset
I Range max         Unset
I Range init        Unset
Bandwidth           8
E2 (V)              3,000
vs.                 Ref
nc cycles           2
Reverse Scan        1
Ef (V)              0,000
vs.                 Eoc

Modify on : 10/28/2020 10:35
nc cycles           1

Modify on : 10/28/2020 10:37
E2 (V)              2,700

mode	ox/red	error	control changes	counter inc.	time/s	control/V	Ewe/V	<I>/mA	cycle number	(Q-Qo)/C	I Range	P/W
2	0	1	0	0	0,000000000000000E+000	1,8815254E+000	1,8809624E+000	-2,858094230759889E-004	1,000000000000000E+000	0,0000000E+000	43	-5,3759675E-007
2	0	0	1	0	1,065061373094286E+003	1,7750183E+000	1,7744268E+000	-3,821514812179311E-003	1,000000000000000E+000	-2,3080099E-003	42	-6,7809983E-006
2	0	0	1	0	2,134622146074922E+003	1,6680620E+000	1,6674967E+000	-8,057296843827416E-003	1,000000000000000E+000	-8,8400496E-003	42	-1,3435516E-005
2	0	0	1	0	3,204180919055580E+003	1,5611056E+000	1,5604807E+000	-1,462180107135364E-002	1,000000000000000E+000	-1,9305062E-002	41	-2,2817039E-005
2	0	0	1	0	4,273741094374396E+003	1,4541491E+000	1,4535326E+000	-1,289630208517276E-001	1,000000000000000E+000	-1,0354745E-001	40	-1,8745195E-004
2	0	0	1	0	5,343301281425018E+003	1,3471928E+000	1,3465639E+000	-5,216192905571609E-002	1,000000000000000E+000	-2,0247792E-001	40	-7,0239374E-005
2	0	0	1	0	6,412860068475682E+003	1,2402364E+000	1,2396053E+000	-2,237294691050207E-002	1,000000000000000E+000	-2,3823939E-001	41	-2,7733624E-005
2	0	0	1	0	7,482419655526319E+003	1,1332800E+000	1,1326886E+000	-1,884015956458035E-002	1,000000000000000E+000	-2,5942731E-001	41	-2,1340034E-005
2	0	0	1	0	8,551979842576897E+003	1,0263237E+000	1,0256697E+000	-2,087100378349308E-002	1,000000000000000E+000	-2,8037158E-001	41	-2,1406757E-005
2	0	0	1	0	9,610549429760635E+003	1,0795020E+000	1,0788952E+000	-3,202686795329737E-003	1,000000000000000E+000	-2,9290804E-001	42	-3,4553634E-006
2	0	0	1	0	1,068011601681115E+004	1,1864583E+000	1,1858464E+000	-9,936614804697988E-005	1,000000000000000E+000	-2,9410914E-001	43	-1,1783300E-007
2	1	0	1	0	1,174968210386171E+004	1,2934148E+000	1,2927874E+000	7,993045209142417E-004	1,000000000000000E+000	-2,9362717E-001	42	1,0333308E-006
2	1	0	1	0	1,281924769091228E+004	1,4003712E+000	1,3997250E+000	2,559960060803688E-003	1,000000000000000E+000	-2,9194888E-001	42	3,5832400E-006
2	1	0	1	0	1,388881367796285E+004	1,5073276E+000	1,5066391E+000	7,200049509360568E-003	1,000000000000000E+000	-2,8695747E-001	42	1,0847876E-005
2	1	0	1	0	1,495837976501339E+004	1,6142838E+000	1,6135917E+000	9,772860326304028E-002	1,000000000000000E+000	-2,5362027E-001	41	1,5769406E-004
2	1	0	1	0	1,602794615206396E+004	1,7212402E+000	1,7206532E+000	7,803099475927744E-002	1,000000000000000E+000	-1,3369031E-001	40	1,3426428E-004
2	1	0	1	0	1,709751193911451E+004	1,8281965E+000	1,8275988E+000	1,676191185752324E-002	1,000000000000000E+000	-9,6919551E-002	41	3,0634052E-005
2	1	0	1	0	1,816707812616507E+004	1,9351530E+000	1,9345431E+000	9,457610902819658E-003	1,000000000000000E+000	-8,3523855E-002	41	1,8296156E-005
2	1	0	1	0	1,923664531321567E+004	2,0421093E+000	2,0414937E+000	6,532196407849013E-003	1,000000000000000E+000	-7,4966237E-002	41	1,3335438E-005
2	1	0	1	0	2,030621080026621E+004	2,1490653E+000	2,1484780E+000	4,899308553681333E-003	1,000000000000000E+000	-6,8893529E-002	41	1,0526057E-005
2	1	0	1	0	2,137577638731676E+004	2,2560220E+000	2,2553878E+000	3,099726828405876E-003	1,000000000000000E+000	-6,4552039E-002	42	6,9910861E-006
2	1	0	1	0	2,244534357436727E+004	2,3629787E+000	2,3623765E+000	2,788171123185950E-003	1,000000000000000E+000	-6,1320491E-002	42	6,5867098E-006
2	1	0	1	0	2,351490916141786E+004	2,4699345E+000	2,4693346E+000	2,552648549809086E-003	1,000000000000000E+000	-5,8384657E-002	42	6,3033435E-006
2	1	0	1	0	2,458447464846841E+004	2,5768909E+000	2,5762782E+000	2,516821862865240E-003	1,000000000000000E+000	-5,5601884E-002	42	6,4840333E-006
2	1	0	1	0	2,565404183551902E+004	2,6838474E+000	2,6832244E+000	2,713150550357164E-003	1,000000000000000E+000	-5,2741766E-002	42	7,2799917E-006
2	1	0	1	0	2,672360742256950E+004	2,7908034E+000	2,7902102E+000	2,580925684069334E-003	1,000000000000000E+000	-4,9740054E-002	42	7,2013254E-006
2	1	0	1	0	2,779317300962011E+004	2,8977606E+000	2,8971894E+000	2,533214341509844E-003	1,000000000000000E+000	-4,6936005E-002	42	7,3392016E-006
2	1	0	1	1	2,885074269681587E+004	2,9964199E+000	2,9958246E+000	2,422385625290412E-003	1,000000000000000E+000	-4,3980777E-002	42	7,2570424E-006
2	1	0	1	1	2,992029958386649E+004	2,8894637E+000	2,8888662E+000	4,188502703966167E-004	1,000000000000000E+000	-4,3005824E-002	43	1,2100024E-006
2	1	0	1	1	3,098985197091725E+004	2,7825074E+000	2,7819350E+000	9,929275790278476E-005	1,000000000000000E+000	-4,2825110E-002	43	2,7622599E-007
2	0	0	1	1	3,206540225789536E+004	2,6749508E+000	2,6743994E+000	-1,451203741913833E-004	1,000000000000000E+000	-4,2934112E-002	43	-3,8810984E-007
2	0	0	1	1	3,313495595007250E+004	2,5679948E+000	2,5674500E+000	-3,800991092096076E-004	1,000000000000000E+000	-4,3288577E-002	43	-9,7588543E-007
2	0	0	1	1	3,420450875206478E+004	2,4610384E+000	2,4605560E+000	-5,771782368145847E-004	1,000000000000000E+000	-4,3870728E-002	43	-1,4201794E-006
2	0	0	1	1	3,527406245405693E+004	2,3540821E+000	2,3534977E+000	-7,718072108458293E-004	1,000000000000000E+000	-4,4670202E-002	42	-1,8164466E-006
2	0	0	1	1	3,634361615604907E+004	2,2471259E+000	2,2465398E+000	-1,016707015136295E-003	1,000000000000000E+000	-4,5718543E-002	42	-2,2840727E-006
2	0	0	1	1	3,741316895804135E+004	2,1401691E+000	2,1396108E+000	-1,283672797123350E-003	1,000000000000000E+000	-4,7057129E-002	42	-2,7465601E-006
2	0	0	1	1	3,848272266003350E+004	2,0332127E+000	2,0326915E+000	-1,747367673696233E-003	1,000000000000000E+000	-4,8731718E-002	42	-3,5518594E-006
2	0	0	1	1	3,955228046202572E+004	1,9262567E+000	1,9257448E+000	-2,665567462328272E-003	1,000000000000000E+000	-5,1118154E-002	42	-5,1332026E-006
2	0	0	1	1	4,060584616398811E+004	1,8208995E+000	1,8203938E+000	-4,319119790432275E-003	2,000000000000000E+000	-5,4771163E-002	42	-7,8624989E-006
[...]
2	0	0	1	1	4,915033237990364E+004	1,0335208E+000	1,0329446E+000	-4,349389627143724E-003	2,000000000000000E+000	-3,1226981E-001	42	-4,4926783E-006
2	1	0	1	1	5,022089748189755E+004	1,1405771E+000	1,1399289E+000	4,012329041591023E-004	2,000000000000000E+000	-3,1325725E-001	43	4,5737698E-007
2	1	0	1	1	5,129046408388979E+004	1,2475333E+000	1,2468960E+000	9,337726175317265E-004	2,000000000000000E+000	-3,1242001E-001	42	1,1643174E-006
2	1	0	1	1	5,236003018588200E+004	1,3544898E+000	1,3538197E+000	1,732134271002142E-003	2,000000000000000E+000	-3,1099510E-001	42	2,3449975E-006
2	1	0	1	1	5,342959598787432E+004	1,4614462E+000	1,4607692E+000	4,221710384917041E-003	2,000000000000000E+000	-3,0785850E-001	42	6,1669443E-006
2	1	0	1	1	5,449916178986663E+004	1,5684025E+000	1,5678047E+000	1,448557943274920E-002	2,000000000000000E+000	-3,0032533E-001	41	2,2710559E-005
2	1	0	1	1	5,556872799185873E+004	1,6753590E+000	1,6747795E+000	1,366355553398096E-001	2,000000000000000E+000	-2,0805956E-001	40	2,2883443E-004
2	1	0	1	1	5,663829459385108E+004	1,7823151E+000	1,7817081E+000	2,520106897739338E-002	2,000000000000000E+000	-1,0726807E-001	41	4,4900949E-005
2	1	0	1	1	5,770786069584335E+004	1,8892713E+000	1,8886734E+000	5,971830182438381E-003	2,000000000000000E+000	-9,4102517E-002	41	1,1278837E-005
2	1	0	1	1	5,877742629783531E+004	1,9962277E+000	1,9956172E+000	3,584547017654038E-003	2,000000000000000E+000	-8,9655653E-002	42	7,1533836E-006
2	1	0	1	1	5,984699349982757E+004	2,1031842E+000	2,1025591E+000	3,296097890515000E-003	2,000000000000000E+000	-8,5885249E-002	42	6,9302405E-006
2	1	0	1	1	6,091655900181970E+004	2,2101407E+000	2,2095273E+000	2,917484126136967E-003	2,000000000000000E+000	-8,2468636E-002	42	6,4462606E-006
2	1	0	1	1	6,198612580381194E+004	2,3170972E+000	2,3164659E+000	2,575149807868819E-003	2,000000000000000E+000	-7,9465806E-002	42	5,9652466E-006
2	1	0	1	1	6,305569180580421E+004	2,4240532E+000	2,4235036E+000	2,174530221176231E-003	2,000000000000000E+000	-7,6811485E-002	42	5,2699820E-006
2	1	0	1	1	6,412525740779651E+004	2,5310099E+000	2,5303910E+000	2,189559117048320E-003	2,000000000000000E+000	-7,4420489E-002	42	5,5404407E-006
2	1	0	1	1	6,519482420978870E+004	2,6379664E+000	2,6373875E+000	2,267261118957371E-003	2,000000000000000E+000	-7,1943916E-002	42	5,9796462E-006
2	1	0	1	0	6,625039184140787E+004	2,6564586E+000	2,6559286E+000	6,937684811554913E-004	2,000000000000000E+000	-6,9944583E-002	42	1,8425995E-006
2	1	0	1	0	6,732144498807128E+004	2,5493524E+000	2,5488031E+000	2,432044644803017E-005	2,000000000000000E+000	-6,9715649E-002	44	6,1988032E-008
2	0	0	1	0	6,839149783497956E+004	2,4423461E+000	2,4418540E+000	-3,082763081088749E-004	2,000000000000000E+000	-6,9943041E-002	43	-7,5276574E-007
2	0	0	1	0	6,946105048197554E+004	2,3353896E+000	2,3348858E+000	-5,485943294141109E-004	2,000000000000000E+000	-7,0466846E-002	43	-1,2809052E-006
2	0	0	1	0	7,053060382896126E+004	2,2284336E+000	2,2278881E+000	-7,854717339573821E-004	2,000000000000000E+000	-7,1240619E-002	42	-1,7499432E-006
2	0	0	1	0	7,160015627597470E+004	2,1214769E+000	2,1209304E+000	-1,113898043444243E-003	2,000000000000000E+000	-7,2315380E-002	42	-2,3625003E-006
2	0	0	1	0	7,266970992300520E+004	2,0145204E+000	2,0139909E+000	-1,661629971452108E-003	2,000000000000000E+000	-7,3847227E-002	42	-3,3465076E-006
2	0	0	1	0	7,373926867000479E+004	1,9075643E+000	1,9070052E+000	-2,502693054695061E-003	2,000000000000000E+000	-7,6124385E-002	42	-4,7726485E-006
2	0	0	1	0	7,399947420846275E+004	1,8815254E+000	1,8809547E+000	-2,831469919093429E-003	2,000000000000000E+000	-7,6832168E-002	42	-5,3258668E-006

File: CV_LTO-C_Al_slurrymia_01_1mVs_02_CV_C03.mpt
EC-Lab ASCII FILE
Nb header lines : 63

Cyclic Voltammetry

Run on channel : 3 (SN 6807)
User :
Electrode connection : standard
Ewe ctrl range : min = 0,00 V, max = 5,00 V
Ewe,I filtering : 50 kHz
Safety Limits :
	Do not start on E overload
Channel : Grounded
Acquisition started on : 10/27/2020 18:19:16
Saved on :
	File : CV_LTO-C_Al_slurrymia_01_1mVs_02_CV_C03.mpr
	Directory : C:\Users\labsuperfici\Desktop\Biologic\Users\Prisca Viviani\201027\
	Host : 10.78.33.0
Device : VSP-300 (SN 0638)
Address : USB
EC-Lab for windows v11.31 (software)
Internet server v11.30 (firmware)
Command interpretor v11.31 (firmware)
Electrode material :
Initial state :
Electrolyte :
Comments :
Cable : standard
Reference electrode : SCE Saturated Calomel Electrode (0,241 V)
Electrode surface area : 0,001 cm²
Characteristic mass : 0,001 g
Equivalent Weight : 0,000 g/eq.
Density : 0,000 g/cm3
Cycle Definition : Charge/Discharge alternance
Ei (V)              0,000
vs.                 Eoc
dE/dt               0,200
dE/dt unit          mV/s
E1 (V)              1,000
vs.                 Ref
Step percent        50
N                   10
E range min (V)     0,000
E range max (V)     5,000
I Range             Auto
I Range min         Unset
I Range max         Unset
I Range init        Unset
Bandwidth           8
E2 (V)              3,000
vs.                 Ref
nc cycles           2
Reverse Scan        1
Ef (V)              0,000
vs.                 Eoc

Modify on : 10/28/2020 10:35
nc cycles           1

Modify on : 10/28/2020 10:37
E2 (V)              2,700

mode	ox/red	error	control changes	counter inc.	time/s	control/V	Ewe/V	<I>/mA	cycle number	(Q-Qo)/C	I Range	P/W
2	0	0	0	0	7,400007360831974E+004	1,8815254E+000	1,8809471E+000	-2,845407463610172E-003	1,000000000000000E+000	0,0000000E+000	42	-5,3520612E-006
2	0	0	1	0	7,449262229177891E+004	1,7830150E+000	1,7825112E+000	-6,873066015620714E-003	1,000000000000000E+000	-2,6204956E-003	42	-1,2251317E-005
2	0	0	1	0	7,498741987475683E+004	1,6840554E+000	1,6836061E+000	-8,371761377128306E-003	1,000000000000000E+000	-6,4205332E-003	42	-1,4094749E-005
2	0	0	1	0	7,548221755772596E+004	1,5850958E+000	1,5845196E+000	-1,776230140394578E-002	1,000000000000000E+000	-1,2153000E-002	41	-2,8144716E-005
2	0	0	1	0	7,597701544065357E+004	1,4861362E+000	1,4856104E+000	-1,205464218178198E-001	1,000000000000000E+000	-3,9277866E-002	40	-1,7908501E-004
2	0	0	1	0	7,647181282364501E+004	1,3871765E+000	1,3866104E+000	-1,599636927976924E-001	1,000000000000000E+000	-1,1627736E-001	40	-2,2180732E-004
2	0	0	1	0	7,696661070659664E+004	1,2882171E+000	1,2876620E+000	-9,343729644553256E-002	1,000000000000000E+000	-1,8027115E-001	40	-1,2031566E-004
2	0	0	1	0	7,746140808953741E+004	1,1892573E+000	1,1887276E+000	-4,103671837515377E-002	1,000000000000000E+000	-2,1209313E-001	41	-4,8781480E-005
2	0	0	1	0	7,795620577253308E+004	1,0902977E+000	1,0897589E+000	-2,211714384346611E-002	1,000000000000000E+000	-2,2664668E-001	41	-2,4102354E-005
2	0	0	1	0	7,844550685677707E+004	1,0075314E+000	1,0069395E+000	-1,692253590404713E-002	1,000000000000000E+000	-2,3711830E-001	41	-1,7039971E-005
2	0	0	1	0	7,894030563971523E+004	1,1064910E+000	1,1058934E+000	-4,202250517369287E-005	1,000000000000000E+000	-2,3986709E-001	43	-4,6472412E-008
2	1	0	1	0	7,943510512271058E+004	1,2054507E+000	1,2048527E+000	2,321939894777872E-003	1,000000000000000E+000	-2,3909764E-001	42	2,7975955E-006
2	1	0	1	0	7,992990420564683E+004	1,3044103E+000	1,3037622E+000	2,920074450310180E-003	1,000000000000000E+000	-2,3775770E-001	42	3,8070827E-006
2	1	0	1	0	8,042470338860247E+004	1,4033699E+000	1,4027578E+000	4,263206096237343E-003	1,000000000000000E+000	-2,3602432E-001	42	5,9802455E-006
2	1	0	1	0	8,091950217159209E+004	1,5023296E+000	1,5016860E+000	9,012591618009852E-003	1,000000000000000E+000	-2,3289312E-001	42	1,3534082E-005
2	1	0	1	0	8,141430145451683E+004	1,6012893E+000	1,6006417E+000	6,725218561798441E-002	1,000000000000000E+000	-2,2189263E-001	41	1,0764666E-004
2	1	0	1	0	8,190910073748976E+004	1,7002488E+000	1,6996611E+000	2,218151950759020E-001	1,000000000000000E+000	-1,4714508E-001	40	3,7701067E-004
2	1	0	1	0	8,240389982046362E+004	1,7992084E+000	1,7986460E+000	9,011627646296344E-002	1,000000000000000E+000	-3,7581377E-002	40	1,6208728E-004
2	1	0	1	0	8,289919870327087E+004	1,8982681E+000	1,8976899E+000	1,301529902869526E-002	1,000000000000000E+000	-2,1880826E-002	41	2,4699002E-005
2	1	0	1	0	8,339399778625998E+004	1,9972278E+000	1,9966545E+000	6,335297090995659E-003	1,000000000000000E+000	-1,7553484E-002	41	1,2649400E-005
2	1	0	1	0	8,388879756921413E+004	2,0961871E+000	2,0956104E+000	5,649684517151251E-003	1,000000000000000E+000	-1,4582868E-002	41	1,1839537E-005
2	1	0	1	0	8,438359605215327E+004	2,1951470E+000	2,1945891E+000	5,165186554556014E-003	1,000000000000000E+000	-1,1860274E-002	41	1,1335463E-005
2	1	0	1	0	8,487889563503000E+004	2,2942064E+000	2,2936060E+000	4,684032945260555E-003	1,000000000000000E+000	-9,3805734E-003	42	1,0743326E-005
2	1	0	1	0	8,537369411796459E+004	2,3931661E+000	2,3925824E+000	4,315793865691406E-003	1,000000000000000E+000	-7,1112681E-003	42	1,0325893E-005
2	1	0	1	0	8,586849360092334E+004	2,4921255E+000	2,4915111E+000	4,111718190163829E-003	1,000000000000000E+000	-4,9944897E-003	42	1,0244392E-005
2	1	0	1	0	8,636329268391058E+004	2,5910852E+000	2,5904901E+000	4,152122425404435E-003	1,000000000000000E+000	-2,9173072E-003	42	1,0756032E-005
2	1	0	1	0	8,685809216683428E+004	2,6900449E+000	2,6894433E+000	4,366244818370349E-003	1,000000000000000E+000	-7,7322876E-004	42	1,1742768E-005
2	1	0	1	1	8,734539235157100E+004	2,6124768E+000	2,6118913E+000	3,951682879707238E-004	1,000000000000000E+000	4,0611627E-005	43	1,0321367E-006
2	0	0	1	1	8,784068843444536E+004	2,5134168E+000	2,5128765E+000	-2,896970964221864E-004	1,000000000000000E+000	9,5941805E-006	43	-7,2797303E-007
2	0	0	1	1	8,833548511737469E+004	2,4144573E+000	2,4139798E+000	-7,130613528737164E-004	1,000000000000000E+000	-2,7468463E-004	43	-1,7213157E-006
2	0	0	1	1	8,883028040034272E+004	2,3154976E+000	2,3149562E+000	-1,085554019833408E-003	1,000000000000000E+000	-7,5560337E-004	42	-2,5130100E-006
2	0	0	1	1	8,932507708332140E+004	2,2165380E+000	2,2159636E+000	-1,508796809171859E-003	1,000000000000000E+000	-1,4347642E-003	42	-3,3434387E-006
2	0	0	1	1	8,981987296624552E+004	2,1175785E+000	2,1170325E+000	-2,064162140204806E-003	1,000000000000000E+000	-2,3533429E-003	42	-4,3698983E-006
2	0	0	1	1	9,031466904923157E+004	2,0186188E+000	2,0180733E+000	-2,882694339217120E-003	1,000000000000000E+000	-3,6023555E-003	42	-5,8174887E-006
2	0	0	1	1	9,080946673219232E+004	1,9196594E+000	1,9191128E+000	-4,097172840237751E-003	1,000000000000000E+000	-5,3594508E-003	42	-7,8629364E-006
2	0	0	1	1	9,129826691654674E+004	1,8218993E+000	1,8213731E+000	-5,932849909469497E-003	2,000000000000000E+000	-7,8324378E-003	42	-1,0805933E-005
2	0	0	1	1	9,179306449952768E+004	1,7229396E+000	1,7224731E+000	-7,282827330637509E-003	2,000000000000000E+000	-1,1184909E-002	42	-1,2544475E-005
2	0	0	1	1	9,228786248249328E+004	1,6239799E+000	1,6234139E+000	-1,174963325642231E-002	2,000000000000000E+000	-1,5564119E-002	41	-1,9074518E-005
2	0	0	1	1	9,278266006542277E+004	1,5250202E+000	1,5245230E+000	-6,333080048534701E-002	2,000000000000000E+000	-2,8022397E-002	41	-9,6549265E-005
[...]
2	1	0	1	1	9,624024944759818E+004	1,1664665E+000	1,1658405E+000	2,550826685251358E-003	2,000000000000000E+000	-2,4377197E-001	42	2,9738571E-006
2	1	0	1	1	9,673504853053321E+004	1,2654262E+000	1,2647721E+000	3,069601525940050E-003	2,000000000000000E+000	-2,4231218E-001	42	3,8823464E-006
2	1	0	1	1	9,722984771349072E+004	1,3643857E+000	1,3637379E+000	3,652560958673598E-003	2,000000000000000E+000	-2,4065119E-001	42	4,9811360E-006
2	1	0	1	1	9,772464679647831E+004	1,4633455E+000	1,4626933E+000	6,278391737827807E-003	2,000000000000000E+000	-2,3828903E-001	42	9,1833617E-006
2	1	0	1	1	9,821944597940310E+004	1,5623051E+000	1,5617141E+000	1,812221287052764E-002	2,000000000000000E+000	-2,3323531E-001	41	2,8301714E-005
2	1	0	1	1	9,871424476237851E+004	1,6612647E+000	1,6606535E+000	1,662457739058690E-001	2,000000000000000E+000	-1,9217442E-001	40	2,7607661E-004
2	1	0	1	1	9,920904414534941E+004	1,7602243E+000	1,7596129E+000	2,204671024446805E-001	2,000000000000000E+000	-5,9474763E-002	40	3,8793677E-004
2	1	0	1	1	9,970384332827569E+004	1,8591839E+000	1,8585976E+000	1,196601919636267E-002	2,000000000000000E+000	-2,6799753E-002	41	2,2240016E-005
2	1	0	1	1	1,001986424112660E+005	1,9581437E+000	1,9575732E+000	6,345125672663890E-003	2,000000000000000E+000	-2,2406159E-002	41	1,2421047E-005
2	1	0	1	1	1,006934427942189E+005	2,0571034E+000	2,0565367E+000	5,583812857812710E-003	2,000000000000000E+000	-1,9429106E-002	41	1,1483316E-005
2	1	0	1	1	1,011882418771576E+005	2,1560626E+000	2,1555195E+000	5,093785302246828E-003	2,000000000000000E+000	-1,6722744E-002	41	1,0979754E-005
2	1	0	1	1	1,016835408600358E+005	2,2551222E+000	2,2545338E+000	4,620791211423780E-003	2,000000000000000E+000	-1,4260924E-002	42	1,0417730E-005
2	1	0	1	1	1,021783399429698E+005	2,3540821E+000	2,3535261E+000	4,199144898524083E-003	2,000000000000000E+000	-1,2028160E-002	42	9,8827968E-006
2	1	0	1	1	1,026731394259277E+005	2,4530418E+000	2,4524558E+000	3,932849680221603E-003	2,000000000000000E+000	-9,9670272E-003	42	9,6451395E-006
2	1	0	1	1	1,031679379089155E+005	2,5520012E+000	2,5514188E+000	3,884786837751231E-003	2,000000000000000E+000	-7,9840496E-003	42	9,9117178E-006
2	1	0	1	1	1,036627373918400E+005	2,6509609E+000	2,6504068E+000	4,033191538819765E-003	2,000000000000000E+000	-5,9777531E-003	42	1,0689599E-005
2	1	0	1	0	1,041505389764577E+005	2,6514606E+000	2,6509349E+000	1,048571566249667E-003	2,000000000000000E+000	-4,4918102E-003	42	2,7796950E-006
2	0	0	1	0	1,046453348594499E+005	2,5525007E+000	2,5519650E+000	-5,011076496020289E-005	2,000000000000000E+000	-4,3607298E-003	44	-1,2788092E-007
2	0	0	1	0	1,051401309423794E+005	2,4535415E+000	2,4530694E+000	-5,116214803495287E-004	2,000000000000000E+000	-4,5492267E-003	43	-1,2550430E-006
2	0	0	1	0	1,056349268253476E+005	2,3545818E+000	2,3540976E+000	-8,505543242337424E-004	2,000000000000000E+000	-4,9330294E-003	42	-2,0022878E-006
2	0	0	1	0	1,061297235083268E+005	2,2556224E+000	2,2551134E+000	-1,240501057355903E-003	2,000000000000000E+000	-5,5019045E-003	42	-2,7974704E-006
2	0	0	1	0	1,066245193912513E+005	2,1566627E+000	2,1561575E+000	-1,705369428045805E-003	2,000000000000000E+000	-6,2793121E-003	42	-3,6770450E-006
2	0	0	1	0	1,071193161742366E+005	2,0577028E+000	2,0571973E+000	-2,341083320458834E-003	2,000000000000000E+000	-7,3242160E-003	42	-4,8160705E-006
2	0	0	1	0	1,076141126571982E+005	1,9587432E+000	1,9582422E+000	-3,343255913999171E-003	2,000000000000000E+000	-8,7615121E-003	42	-6,5469048E-006
2	0	0	0	0	1,080001113658631E+005	1,8815254E+000	1,8810730E+000	-4,480447258833661E-003	2,000000000000000E+000	-1,0293627E-002	42	-8,4280482E-006