Folder: Randles-Sevcik/Dati/201009 (part 2)

File: CV_CNTmultiwalled_1_4_12layer_03_CV_C03.mpt
EC-Lab ASCII FILE
Nb header lines : 57

Cyclic Voltammetry

Run on channel : 3 (SN 6807)
User :
Electrode connection : standard
Ewe ctrl range : min = -5,00 V, max = 5,00 V
Ewe,I filtering : 50 kHz
Safety Limits :
	Do not start on E overload
Channel : Grounded
Acquisition started on : 10/09/2020 18:33:11
Saved on :
	File : CV_CNTmultiwalled_1_4_12layer_03_CV_C03.mpr
	Directory : C:\Users\labsuperfici\Desktop\Biologic\Users\Prisca Viviani\201009\
	Host : 10.78.33.0
Device : VSP-300 (SN 0638)
Address : USB
EC-Lab for windows v11.31 (software)
Internet server v11.30 (firmware)
Command interpretor v11.31 (firmware)
Electrode material :
Initial state :
Electrolyte :
Comments :
Cable : standard
Reference electrode : SCE Saturated Calomel Electrode (0,241 V)
Electrode surface area : 0,001 cm²
Characteristic mass : 0,001 g
Equivalent Weight : 0,000 g/eq.
Density : 0,000 g/cm3
Cycle Definition : Charge/Discharge alternance
Ei (V)              0,000
vs.                 Eoc
dE/dt               1,000
dE/dt unit          mV/s
E1 (V)              2,800
vs.                 Ref
Step percent        50
N                   10
E range min (V)     -5,000
E range max (V)     5,000
I Range             Auto
I Range min         Unset
I Range max         Unset
I Range init        Unset
Bandwidth           8
E2 (V)              4,300
vs.                 Ref
nc cycles           2
Reverse Scan        1
Ef (V)              0,000
vs.                 Eoc

mode	ox/red	error	control changes	counter inc.	time/s	control/V	Ewe/V	<I>/mA	cycle number	(Q-Qo)/C	I Range	P/W
2	0	0	1	0	6,328523500623176E+004	2,7795434E+000	2,7793686E+000	-1,468453258275986E-001	1,000000000000000E+000	0,0000000E+000	40	-4,0813730E-004
2	0	0	1	0	6,341068600646558E+004	2,9049921E+000	2,9048254E+000	-7,934705786113361E-002	1,000000000000000E+000	-1,3303498E-002	40	-2,3048936E-004
2	0	0	1	0	6,354063410670753E+004	3,0349402E+000	3,0347855E+000	-4,417148981982370E-002	1,000000000000000E+000	-2,1146417E-002	41	-1,3405099E-004
2	0	0	1	0	6,367058220694953E+004	3,1648884E+000	3,1647794E+000	-2,063403476295639E-002	1,000000000000000E+000	-2,5259791E-002	41	-6,5302171E-005
2	0	0	1	0	6,380053030719172E+004	3,2948368E+000	3,2947209E+000	-2,260845979829604E-003	1,000000000000000E+000	-2,6716206E-002	42	-7,4488566E-006
2	1	0	1	0	6,393047850743379E+004	3,4247842E+000	3,4246500E+000	1,965043209837003E-002	1,000000000000000E+000	-2,5696347E-002	41	6,7295849E-005
2	1	0	1	0	6,406042650767579E+004	3,5547321E+000	3,5545454E+000	7,662889561627106E-002	1,000000000000000E+000	-2,0169230E-002	41	2,7238089E-004
2	1	0	1	0	6,419037470791771E+004	3,6846800E+000	3,6845508E+000	1,696468028394760E-001	1,000000000000000E+000	-4,1237697E-003	40	6,2507228E-004
2	1	0	1	0	6,432032290815981E+004	3,8146284E+000	3,8144727E+000	2,339871900245418E-001	1,000000000000000E+000	2,2586461E-002	40	8,9253776E-004
2	1	0	1	0	6,445027090840181E+004	3,9445763E+000	3,9444606E+000	2,446851061517306E-001	1,000000000000000E+000	5,4354154E-002	40	9,6515077E-004
2	1	0	1	0	6,458021920864389E+004	4,0745244E+000	4,0743742E+000	2,125470500213211E-001	1,000000000000000E+000	8,4378213E-002	40	8,6599623E-004
2	1	0	1	0	6,471016770888594E+004	4,2044721E+000	4,2043104E+000	1,713518998661692E-001	1,000000000000000E+000	1,0931825E-001	40	7,2041660E-004
2	1	0	1	1	6,483671730912174E+004	4,2688460E+000	4,2686491E+000	1,092146199061187E-001	2,000000000000000E+000	1,2814128E-001	40	4,6619889E-004
2	1	0	1	1	6,496666520936368E+004	4,1388984E+000	4,1386948E+000	5,285133848098572E-002	2,000000000000000E+000	1,3811357E-001	40	2,1873556E-004
2	1	0	1	1	6,509661340960575E+004	4,0089502E+000	4,0086942E+000	2,585573913399844E-002	2,000000000000000E+000	1,4302304E-001	41	1,0364775E-004
2	1	0	1	1	6,522656130984786E+004	3,8790028E+000	3,8787763E+000	1,153922272086780E-002	2,000000000000000E+000	1,4534874E-001	41	4,4758064E-005
2	1	0	1	1	6,535650931008998E+004	3,7490549E+000	3,7487667E+000	3,258131757236264E-003	2,000000000000000E+000	1,4625932E-001	42	1,2213975E-005
2	0	0	1	1	6,548645721033186E+004	3,6191068E+000	3,6189215E+000	-3,167047055785473E-003	2,000000000000000E+000	1,4625551E-001	42	-1,1461295E-005
2	0	0	1	1	6,561640529136884E+004	3,4891579E+000	3,4889407E+000	-1,266826916986519E-002	2,000000000000000E+000	1,4528723E-001	41	-4,4198841E-005
2	0	0	1	1	6,574635306066449E+004	3,3592100E+000	3,3590140E+000	-4,023054304923424E-002	2,000000000000000E+000	1,4225094E-001	41	-1,3513496E-004
2	0	0	1	1	6,587630112990132E+004	3,2292626E+000	3,2290323E+000	-1,198126266643671E-001	2,000000000000000E+000	1,3198569E-001	40	-3,8687885E-004
2	0	0	1	1	6,600624899918004E+004	3,0993140E+000	3,0991275E+000	-1,778244625023713E-001	2,000000000000000E+000	1,1224030E-001	40	-5,5110070E-004
2	0	0	1	1	6,613619696843333E+004	2,9693661E+000	2,9691391E+000	-2,078646026673967E-001	2,000000000000000E+000	8,6872265E-002	40	-6,1717891E-004
2	0	0	1	1	6,626614483769587E+004	2,8394184E+000	2,8391984E+000	-2,197490773038229E-001	2,000000000000000E+000	5,8898348E-002	40	-6,2391121E-004
2	0	0	1	1	6,639269530777540E+004	2,8869989E+000	2,8867795E+000	-1,442015434456421E-001	2,000000000000000E+000	3,4705743E-002	40	-4,1627805E-004
2	0	0	1	1	6,652264347700914E+004	3,0169470E+000	3,0167120E+000	-8,110369122708205E-002	2,000000000000000E+000	2,0441897E-002	40	-2,4466647E-004
2	0	0	1	1	6,665259134630719E+004	3,1468952E+000	3,1467023E+000	-4,236895417471143E-002	2,000000000000000E+000	1,2597487E-002	41	-1,3332248E-004
2	0	0	1	1	6,678253961552627E+004	3,2768435E+000	3,2766385E+000	-1,473663416981766E-002	2,000000000000000E+000	8,9634433E-003	41	-4,8286623E-005
2	1	0	1	1	6,691268768478493E+004	3,4069912E+000	3,4067826E+000	1,288631696116782E-002	2,000000000000000E+000	8,7735755E-003	41	4,3900880E-005
2	1	0	1	1	6,704263555400819E+004	3,5369389E+000	3,5366521E+000	6,800577592476476E-002	2,000000000000000E+000	1,3430651E-002	41	2,4051277E-004
2	1	0	1	1	6,717258372330060E+004	3,6668870E+000	3,6666405E+000	1,616876888310206E-001	2,000000000000000E+000	2,8363958E-002	40	5,9285061E-004
2	1	0	1	1	6,730253179253993E+004	3,7968352E+000	3,7966261E+000	2,277391682879149E-001	2,000000000000000E+000	5,4272328E-002	40	8,6464046E-004
2	1	0	1	1	6,743247986181639E+004	3,9267831E+000	3,9265745E+000	2,307192299713030E-001	2,000000000000000E+000	8,4800236E-002	40	9,0593623E-004
2	1	0	1	1	6,756242813107185E+004	4,0567312E+000	4,0564809E+000	1,852815697356749E-001	2,000000000000000E+000	1,1207936E-001	40	7,5159117E-004
2	1	0	1	1	6,769237630033190E+004	4,1866798E+000	4,1865163E+000	1,336775448151404E-001	2,000000000000000E+000	1,3274948E-001	40	5,5964320E-004
2	1	0	1	0	6,781872577046097E+004	4,2868390E+000	4,2866602E+000	7,898719327936021E-002	3,000000000000000E+000	1,4690106E-001	40	3,3859126E-004
2	1	0	1	0	6,794867383969226E+004	4,1568913E+000	4,1566939E+000	2,987462725714657E-002	3,000000000000000E+000	1,5322882E-001	41	1,2417969E-004
2	1	0	1	0	6,807862200899329E+004	4,0269427E+000	4,0267525E+000	1,223816391376129E-002	3,000000000000000E+000	1,5581380E-001	41	4,9280057E-005
2	1	0	1	0	6,820856987821122E+004	3,8969948E+000	3,8967726E+000	3,381927310611776E-003	3,000000000000000E+000	1,5675250E-001	42	1,3178602E-005
2	0	0	1	0	6,833851774751511E+004	3,7670474E+000	3,7668607E+000	-1,620771270936586E-003	3,000000000000000E+000	1,5683098E-001	42	-6,1052197E-006
[...]
2	0	0	1	0	6,924815343233733E+004	2,8574109E+000	2,8571968E+000	-2,159694898256830E-001	3,000000000000000E+000	7,3579699E-002	40	-6,1706733E-004
2	0	0	1	0	6,937470400237606E+004	2,8690064E+000	2,8687923E+000	-1,555101312887430E-001	3,000000000000000E+000	4,8371337E-002	40	-4,4612627E-004
2	0	0	1	0	6,950465197167965E+004	2,9989543E+000	2,9987075E+000	-8,778562341798990E-002	3,000000000000000E+000	3,2992151E-002	40	-2,6324342E-004
2	0	0	1	0	6,963459994089627E+004	3,1289022E+000	3,1287618E+000	-4,686994053060373E-002	3,000000000000000E+000	2,4450211E-002	41	-1,4664487E-004
2	0	0	1	0	6,976454811019846E+004	3,2588508E+000	3,2586377E+000	-1,837526736562745E-002	3,000000000000000E+000	2,0298688E-002	41	-5,9878337E-005
2	1	0	1	0	6,989469617938093E+004	3,3889985E+000	3,3886909E+000	8,391498620407934E-003	3,000000000000000E+000	1,9612197E-002	42	2,8436196E-005
2	1	0	1	0	7,002464404866751E+004	3,5189457E+000	3,5186653E+000	5,627686404570320E-002	3,000000000000000E+000	2,3333112E-002	41	1,9801945E-004
2	1	0	1	0	7,015459221791162E+004	3,6488948E+000	3,6486447E+000	1,493497245272453E-001	3,000000000000000E+000	3,6549050E-002	40	5,4492406E-004
2	1	0	1	0	7,028454028718360E+004	3,7788427E+000	3,7785993E+000	2,225520917278674E-001	3,000000000000000E+000	6,1221033E-002	40	8,4093516E-004
2	1	0	1	0	7,041448835644429E+004	3,9087906E+000	3,9085522E+000	2,340266090642000E-001	3,000000000000000E+000	9,1661490E-002	40	9,1470522E-004
2	1	0	1	0	7,054443662569870E+004	4,0387387E+000	4,0385189E+000	1,910008501329831E-001	3,000000000000000E+000	1,1960354E-001	40	7,7136053E-004
2	1	0	1	0	7,067438479497540E+004	4,1686864E+000	4,1684756E+000	1,374779776416362E-001	3,000000000000000E+000	1,4090765E-001	40	5,7307357E-004
2	1	0	1	0	7,080433276421460E+004	4,2986345E+000	4,2984581E+000	9,494418183288755E-002	3,000000000000000E+000	1,5578735E-001	40	4,0811358E-004
2	1	0	1	1	7,093068233436439E+004	4,1748838E+000	4,1746740E+000	3,109773733831944E-002	3,000000000000000E+000	1,6238908E-001	41	1,2982292E-004
2	1	0	1	1	7,106063030358218E+004	4,0449357E+000	4,0447383E+000	1,215200311600038E-002	3,000000000000000E+000	1,6503254E-001	41	4,9151673E-005
2	1	0	1	1	7,119057837288198E+004	3,9149878E+000	3,9147491E+000	2,876785272764124E-003	3,000000000000000E+000	1,6592866E-001	42	1,1261893E-005
2	0	0	1	1	7,132052634211443E+004	3,7850397E+000	3,7848434E+000	-2,032371696289762E-003	3,000000000000000E+000	1,6594358E-001	42	-7,6922088E-006
2	0	0	1	1	7,145047431139811E+004	3,6550918E+000	3,6549280E+000	-5,764547540126438E-003	3,000000000000000E+000	1,6542719E-001	42	-2,1069007E-005
2	0	0	1	1	7,158042208064569E+004	3,5251436E+000	3,5249627E+000	-1,186133077562726E-002	3,000000000000000E+000	1,6432559E-001	41	-4,1810748E-005
2	0	0	1	1	7,171037024991401E+004	3,3951955E+000	3,3949988E+000	-2,887733211162929E-002	3,000000000000000E+000	1,6189203E-001	41	-9,8038508E-005
2	0	0	1	1	7,184031801917800E+004	3,2652478E+000	3,2651429E+000	-9,546927277369538E-002	3,000000000000000E+000	1,5439536E-001	41	-3,1172083E-004
2	0	0	1	1	7,197026598842995E+004	3,1352997E+000	3,1351073E+000	-1,638844220256450E-001	3,000000000000000E+000	1,3714425E-001	40	-5,1379524E-004
2	0	0	1	1	7,210021385771036E+004	3,0053520E+000	3,0051134E+000	-1,996745839976435E-001	3,000000000000000E+000	1,1320766E-001	40	-6,0004473E-004
2	0	0	1	1	7,223016192694474E+004	2,8754039E+000	2,8751986E+000	-2,165675852663540E-001	3,000000000000000E+000	8,6001277E-002	40	-6,2267482E-004
2	0	0	0	1	7,232587940430408E+004	2,7795434E+000	2,7793307E+000	-2,213692602077266E-001	3,000000000000000E+000	6,5012604E-002	40	-6,1525841E-004

File: CV_CNTmultiwalled_1_4_12layer_04_CV_C03.mpt
EC-Lab ASCII FILE
Nb header lines : 57

Cyclic Voltammetry

Run on channel : 3 (SN 6807)
User :
Electrode connection : standard
Ewe ctrl range : min = -5,00 V, max = 5,00 V
Ewe,I filtering : 50 kHz
Safety Limits :
	Do not start on E overload
Channel : Grounded
Acquisition started on : 10/09/2020 18:33:11
Saved on :
	File : CV_CNTmultiwalled_1_4_12layer_04_CV_C03.mpr
	Directory : C:\Users\labsuperfici\Desktop\Biologic\Users\Prisca Viviani\201009\
	Host : 10.78.33.0
Device : VSP-300 (SN 0638)
Address : USB
EC-Lab for windows v11.31 (software)
Internet server v11.30 (firmware)
Command interpretor v11.31 (firmware)
Electrode material :
Initial state :
Electrolyte :
Comments :
Cable : standard
Reference electrode : SCE Saturated Calomel Electrode (0,241 V)
Electrode surface area : 0,001 cm²
Characteristic mass : 0,001 g
Equivalent Weight : 0,000 g/eq.
Density : 0,000 g/cm3
Cycle Definition : Charge/Discharge alternance
Ei (V)              0,000
vs.                 Eoc
dE/dt               5,000
dE/dt unit          mV/s
E1 (V)              2,800
vs.                 Ref
Step percent        50
N                   10
E range min (V)     -5,000
E range max (V)     5,000
I Range             Auto
I Range min         Unset
I Range max         Unset
I Range init        Unset
Bandwidth           8
E2 (V)              4,300
vs.                 Ref
nc cycles           2
Reverse Scan        1
Ef (V)              0,000
vs.                 Eoc

mode	ox/red	error	control changes	counter inc.	time/s	control/V	Ewe/V	<I>/mA	cycle number	(Q-Qo)/C	I Range	P/W
2	0	0	1	0	7,232609980425204E+004	2,7799432E+000	2,7797923E+000	-2,344700396060944E-001	1,000000000000000E+000	0,0000000E+000	40	-6,5177801E-004
2	0	0	1	0	7,235151029827097E+004	2,9069915E+000	2,9068146E+000	-1,382429034871737E-001	1,000000000000000E+000	-4,4531971E-003	40	-4,0184648E-004
2	0	0	1	0	7,237749989209590E+004	3,0369394E+000	3,0367382E+000	-8,135669592920014E-002	1,000000000000000E+000	-7,2754859E-003	40	-2,4705898E-004
2	0	0	1	0	7,240348948597279E+004	3,1668870E+000	3,1667695E+000	-3,589015113561464E-002	1,000000000000000E+000	-8,7778112E-003	41	-1,1365583E-004
2	1	0	1	0	7,242951907979324E+004	3,2970352E+000	3,2968514E+000	3,106272759585258E-003	1,000000000000000E+000	-9,1937780E-003	42	1,0240919E-005
2	1	0	1	0	7,245550867366773E+004	3,4269831E+000	3,4268217E+000	4,330871233563505E-002	1,000000000000000E+000	-8,6034872E-003	41	1,4841123E-004
2	1	0	1	0	7,248149826749903E+004	3,5569315E+000	3,5568278E+000	1,031138350307377E-001	1,000000000000000E+000	-6,7755654E-003	40	3,6675815E-004
2	1	0	1	0	7,250748786137067E+004	3,6868789E+000	3,6867747E+000	2,064474570609658E-001	1,000000000000000E+000	-2,8316400E-003	40	7,6112529E-004
2	1	0	1	0	7,253347745520592E+004	3,8168271E+000	3,8166497E+000	3,265833584909197E-001	1,000000000000000E+000	4,0938999E-003	40	1,2464543E-003
2	1	0	1	0	7,255946704907308E+004	3,9467750E+000	3,9466276E+000	4,359757717504067E-001	1,000000000000000E+000	1,4061065E-002	40	1,7206341E-003
2	1	0	1	0	7,258545664291200E+004	4,0767226E+000	4,0765548E+000	5,246155432088706E-001	1,000000000000000E+000	2,6624130E-002	40	2,1386240E-003
2	1	0	1	0	7,261144623677671E+004	4,2066708E+000	4,2064519E+000	5,795771046669707E-001	1,000000000000000E+000	4,1096270E-002	40	2,4379632E-003
2	1	0	1	1	7,263671653079009E+004	4,2668471E+000	4,2666073E+000	5,057033728872469E-001	2,000000000000000E+000	5,5586819E-002	40	2,1576376E-003
2	1	0	1	1	7,266270622464921E+004	4,1368980E+000	4,1366844E+000	3,062264387385256E-001	2,000000000000000E+000	6,5903045E-002	40	1,2667621E-003
2	1	0	1	1	7,268869581849634E+004	4,0069509E+000	4,0067272E+000	1,849390769552448E-001	2,000000000000000E+000	7,2164312E-002	40	7,4100046E-004
2	1	0	1	1	7,271468541235104E+004	3,8770032E+000	3,8767908E+000	1,088806462880999E-001	2,000000000000000E+000	7,5907439E-002	40	4,2210749E-004
2	1	0	1	1	7,274067500620219E+004	3,7470548E+000	3,7468278E+000	5,752336087106047E-002	2,000000000000000E+000	7,8025632E-002	40	2,1553013E-004
2	1	0	1	1	7,276666460005456E+004	3,6171069E+000	3,6168730E+000	1,934724720440506E-002	2,000000000000000E+000	7,9004891E-002	41	6,9976537E-005
2	0	0	1	1	7,279265419390798E+004	3,4871593E+000	3,4869664E+000	-1,621936822302456E-002	2,000000000000000E+000	7,9047918E-002	41	-5,6556393E-005
2	0	0	1	1	7,281864378775796E+004	3,3572111E+000	3,3570650E+000	-6,312269867205866E-002	2,000000000000000E+000	7,8064285E-002	41	-2,1190700E-004
2	0	0	1	1	7,284463338161545E+004	3,2272630E+000	3,2270436E+000	-1,455332356858942E-001	2,000000000000000E+000	7,5442530E-002	40	-4,6964211E-004
2	0	0	1	1	7,287062297546072E+004	3,0973153E+000	3,0971360E+000	-2,441922020079677E-001	2,000000000000000E+000	7,0359610E-002	40	-7,5629645E-004
2	0	0	1	1	7,289661256932234E+004	2,9673674E+000	2,9671676E+000	-3,311464291993200E-001	2,000000000000000E+000	6,2837243E-002	40	-9,8256697E-004
2	0	0	1	1	7,292260216316517E+004	2,8374195E+000	2,8372419E+000	-3,989428625625155E-001	2,000000000000000E+000	5,3277176E-002	40	-1,1318974E-003
2	0	0	1	1	7,294791275719006E+004	2,8889980E+000	2,8887689E+000	-3,078718417984700E-001	2,000000000000000E+000	4,3839030E-002	40	-8,8937063E-004
2	0	0	1	1	7,297390235102712E+004	3,0189462E+000	3,0187335E+000	-1,957482947345559E-001	2,000000000000000E+000	3,7362114E-002	40	-5,9091195E-004
2	0	0	1	1	7,299989194489643E+004	3,1488943E+000	3,1486845E+000	-1,100322564129286E-001	2,000000000000000E+000	3,3436801E-002	40	-3,4645686E-004
2	0	0	1	1	7,302592153872096E+004	3,2790422E+000	3,2788594E+000	-4,026434923753171E-002	2,000000000000000E+000	3,1507473E-002	41	-1,3202114E-004
2	1	0	1	1	7,305195113258320E+004	3,4091902E+000	3,4089930E+000	2,358197507564114E-002	2,000000000000000E+000	3,1289142E-002	41	8,0390790E-005
2	1	0	1	1	7,307794072641502E+004	3,5391381E+000	3,5388553E+000	9,942795396266302E-002	2,000000000000000E+000	3,2840841E-002	41	3,5186115E-004
2	1	0	1	1	7,310393032029091E+004	3,6690860E+000	3,6688275E+000	2,073250811980039E-001	2,000000000000000E+000	3,6757428E-002	40	7,6063996E-004
2	1	0	1	1	7,312991991411801E+004	3,7990341E+000	3,7987845E+000	3,265092736005362E-001	2,000000000000000E+000	4,3711867E-002	40	1,2403383E-003
2	1	0	1	1	7,315590950799757E+004	3,9289818E+000	3,9287307E+000	4,125876760591010E-001	2,000000000000000E+000	5,3422734E-002	40	1,6209459E-003
2	1	0	1	1	7,318189920182165E+004	4,0589304E+000	4,0586634E+000	4,455683198457514E-001	2,000000000000000E+000	6,4731531E-002	40	1,8084118E-003
2	1	0	1	1	7,320788869570324E+004	4,1888776E+000	4,1886668E+000	3,863444441044201E-001	2,000000000000000E+000	7,5717248E-002	40	1,6182682E-003
2	1	0	1	0	7,323351888960926E+004	4,2828403E+000	4,2826300E+000	2,727677186628421E-001	3,000000000000000E+000	8,4506460E-002	40	1,1681633E-003
2	1	0	1	0	7,325950848349574E+004	4,1528926E+000	4,1527262E+000	1,274763294303072E-001	3,000000000000000E+000	8,9348294E-002	40	5,2937429E-004
2	1	0	1	0	7,328549807731120E+004	4,0229445E+000	4,0227504E+000	6,366134249967903E-002	3,000000000000000E+000	9,1745213E-002	40	2,5609368E-004
2	1	0	1	0	7,331148767120158E+004	3,8929968E+000	3,8927820E+000	2,738900957489698E-002	3,000000000000000E+000	9,2888981E-002	41	1,0661945E-004
2	1	0	1	0	7,333751726500643E+004	3,7628491E+000	3,7625861E+000	3,468497983595845E-003	3,000000000000000E+000	9,3268432E-002	42	1,3050522E-005
[...]
2	0	0	0	0	7,351944452201523E+004	2,8532128E+000	2,8530264E+000	-3,845030240417655E-001	3,000000000000000E+000	6,7884244E-002	40	-1,0969973E-003
2	0	0	1	0	7,354471511599282E+004	2,8730049E+000	2,8728149E+000	-3,214435788440086E-001	3,000000000000000E+000	5,8353249E-002	40	-9,2344789E-004
2	0	0	1	0	7,357070470988774E+004	3,0029531E+000	3,0027478E+000	-2,068932138239776E-001	3,000000000000000E+000	5,1553369E-002	40	-6,2124815E-004
2	0	0	1	0	7,359669440369855E+004	3,1329012E+000	3,1327009E+000	-1,201231053610297E-001	3,000000000000000E+000	4,7348123E-002	40	-3,7630976E-004
2	0	0	1	0	7,362268389759003E+004	3,2628489E+000	3,2626400E+000	-4,896080659317648E-002	3,000000000000000E+000	4,5178927E-002	40	-1,5974148E-004
2	1	0	1	0	7,364871349139628E+004	3,3929970E+000	3,3927541E+000	1,518401339658748E-002	3,000000000000000E+000	4,4744004E-002	41	5,1515624E-005
2	1	0	1	0	7,367470318528436E+004	3,5229452E+000	3,5226719E+000	8,801003192671963E-002	3,000000000000000E+000	4,6050865E-002	41	3,1003047E-004
2	1	0	1	0	7,370069267910207E+004	3,6528926E+000	3,6526330E+000	1,900349747798145E-001	3,000000000000000E+000	4,9592923E-002	40	6,9412799E-004
2	1	0	1	0	7,372668237298774E+004	3,7828414E+000	3,7825952E+000	3,079189990065192E-001	3,000000000000000E+000	5,6069776E-002	40	1,1647330E-003
2	1	0	1	0	7,375267186680860E+004	3,9127891E+000	3,9125507E+000	4,036590617056008E-001	3,000000000000000E+000	6,5407455E-002	40	1,5793366E-003
2	1	0	1	0	7,377866156069003E+004	4,0427365E+000	4,0425076E+000	4,363514243670727E-001	3,000000000000000E+000	7,6510377E-002	40	1,7639539E-003
2	1	0	1	0	7,380465115451510E+004	4,1726847E+000	4,1724730E+000	3,629477807020072E-001	3,000000000000000E+000	8,7149851E-002	40	1,5143898E-003
2	1	0	1	1	7,383010144852031E+004	4,2999353E+000	4,2997208E+000	2,552603275752530E-001	3,000000000000000E+000	9,4923407E-002	40	1,0975482E-003
2	1	0	1	1	7,385591104239272E+004	4,1708851E+000	4,1707253E+000	8,023889409639484E-002	3,000000000000000E+000	9,8616868E-002	40	3,3465438E-004
2	1	0	1	1	7,388190063626575E+004	4,0409374E+000	4,0407262E+000	2,670529400736421E-002	3,000000000000000E+000	9,9910125E-002	41	1,0790878E-004
2	1	0	1	1	7,390793023009010E+004	3,9107900E+000	3,9106266E+000	2,627423054889963E-004	3,000000000000000E+000	1,0022335E-001	42	1,0274871E-006
2	0	0	1	1	7,393391982395947E+004	3,7808411E+000	3,7806797E+000	-1,530440528296964E-002	3,000000000000000E+000	1,0001060E-001	41	-5,7861056E-005
2	0	0	1	1	7,395990941779665E+004	3,6508934E+000	3,6507103E+000	-2,685015274545725E-002	3,000000000000000E+000	9,9455409E-002	41	-9,8022130E-005
2	0	0	1	1	7,398589901166293E+004	3,5209458E+000	3,5207715E+000	-3,971386653097497E-002	3,000000000000000E+000	9,8597705E-002	41	-1,3982345E-004
2	0	0	1	1	7,401188860550220E+004	3,3909976E+000	3,3908215E+000	-6,333878599149079E-002	3,000000000000000E+000	9,7293377E-002	41	-2,1477051E-004
2	0	0	1	1	7,403787819936592E+004	3,2610495E+000	3,2608578E+000	-1,211990725604593E-001	3,000000000000000E+000	9,5010586E-002	40	-3,9521293E-004
2	0	0	1	1	7,406386789320904E+004	3,1311011E+000	3,1309276E+000	-2,146463332957840E-001	3,000000000000000E+000	9,0658300E-002	40	-6,7204214E-004
2	0	0	1	1	7,408985738706845E+004	3,0011537E+000	3,0009665E+000	-3,017860613921186E-001	3,000000000000000E+000	8,3917074E-002	40	-9,0564985E-004
2	0	0	1	1	7,411584708091524E+004	2,8712053E+000	2,8710279E+000	-3,750793073010201E-001	3,000000000000000E+000	7,5089529E-002	40	-1,0768631E-003
2	0	0	1	1	7,413415097657591E+004	2,7795434E+000	2,7793345E+000	-4,184225994561404E-001	3,000000000000000E+000	6,7812301E-002	40	-1,1629363E-003