Folder: Randles-Sevcik/Dati/201027 (part 5)

File: CV_LTO-C_Al_slurrymia_01_1mVs_09_CV_C03.mpt
EC-Lab ASCII FILE
Nb header lines : 63

Cyclic Voltammetry

Run on channel : 3 (SN 6807)
User :
Electrode connection : standard
Ewe ctrl range : min = 0,00 V, max = 5,00 V
Ewe,I filtering : 50 kHz
Safety Limits :
	Do not start on E overload
Channel : Grounded
Acquisition started on : 10/27/2020 18:19:16
Saved on :
	File : CV_LTO-C_Al_slurrymia_01_1mVs_09_CV_C03.mpr
	Directory : C:\Users\labsuperfici\Desktop\Biologic\Users\Prisca Viviani\201027\
	Host : 10.78.33.0
Device : VSP-300 (SN 0638)
Address : USB
EC-Lab for windows v11.31 (software)
Internet server v11.30 (firmware)
Command interpretor v11.31 (firmware)
Electrode material :
Initial state :
Electrolyte :
Comments :
Cable : standard
Reference electrode : SCE Saturated Calomel Electrode (0,241 V)
Electrode surface area : 0,001 cm²
Characteristic mass : 0,001 g
Equivalent Weight : 0,000 g/eq.
Density : 0,000 g/cm3
Cycle Definition : Charge/Discharge alternance
Ei (V)              0,000
vs.                 Eoc
dE/dt               0,900
dE/dt unit          mV/s
E1 (V)              1,000
vs.                 Ref
Step percent        50
N                   10
E range min (V)     0,000
E range max (V)     5,000
I Range             Auto
I Range min         Unset
I Range max         Unset
I Range init        Unset
Bandwidth           8
E2 (V)              3,000
vs.                 Ref
nc cycles           2
Reverse Scan        1
Ef (V)              0,000
vs.                 Eoc

Modify on : 10/28/2020 10:35
nc cycles           1

Modify on : 10/28/2020 10:37
E2 (V)              2,700

mode	ox/red	error	control changes	counter inc.	time/s	control/V	Ewe/V	<I>/mA	cycle number	(Q-Qo)/C	I Range	P/W
2	0	0	1	0	1,908165794561857E+005	1,8815254E+000	1,8809738E+000	-1,562061347067356E-002	1,000000000000000E+000	0,0000000E+000	41	-2,9381965E-005
2	0	0	1	0	1,909260348733098E+005	1,7830150E+000	1,7824235E+000	-2,136328871332144E-002	1,000000000000000E+000	-1,9795652E-003	41	-3,8078429E-005
2	0	0	1	0	1,910359899905147E+005	1,6840556E+000	1,6835030E+000	-3,019520663190205E-002	1,000000000000000E+000	-4,8165270E-003	41	-5,0833722E-005
2	0	0	1	0	1,911459452077197E+005	1,5850959E+000	1,5845547E+000	-7,172118941070704E-002	1,000000000000000E+000	-9,8581593E-003	41	-1,1364614E-004
2	0	0	1	0	1,912559004249237E+005	1,4861363E+000	1,4856253E+000	-3,829141532953735E-001	1,000000000000000E+000	-3,0693574E-002	40	-5,6886696E-004
2	0	0	1	0	1,913658555421282E+005	1,3871765E+000	1,3866450E+000	-3,941375825488835E-001	1,000000000000000E+000	-7,6971248E-002	40	-5,4652890E-004
2	0	0	1	0	1,914758107593306E+005	1,2882168E+000	1,2876594E+000	-2,915430361502390E-001	1,000000000000000E+000	-1,1443567E-001	40	-3,7540813E-004
2	0	0	1	0	1,915857659765342E+005	1,1892571E+000	1,1886641E+000	-2,239244568421481E-001	1,000000000000000E+000	-1,4252561E-001	40	-2,6617094E-004
2	0	0	1	0	1,916957210937373E+005	1,0902978E+000	1,0897000E+000	-1,825064353542345E-001	1,000000000000000E+000	-1,6470154E-001	40	-1,9887726E-004
2	0	0	1	0	1,918044552107505E+005	1,0075312E+000	1,0068971E+000	-1,444538920539364E-001	1,000000000000000E+000	-1,8317635E-001	40	-1,4545021E-004
2	0	0	1	0	1,919144104279531E+005	1,1064910E+000	1,1058849E+000	-7,896827986652843E-002	1,000000000000000E+000	-1,9469161E-001	40	-8,7329827E-005
2	0	0	1	0	1,920243656451576E+005	1,2054507E+000	1,2048264E+000	-5,039891202058899E-002	1,000000000000000E+000	-2,0164520E-001	40	-6,0721937E-005
2	0	0	1	0	1,921343208623622E+005	1,3044102E+000	1,3038265E+000	-3,141822177469056E-002	1,000000000000000E+000	-2,0606372E-001	41	-4,0963907E-005
2	0	0	1	0	1,922442760795667E+005	1,4033699E+000	1,4027841E+000	-1,572192580081005E-002	1,000000000000000E+000	-2,0863102E-001	41	-2,2054468E-005
2	1	0	1	0	1,923542312967705E+005	1,5023296E+000	1,5016600E+000	4,832131908095449E-003	1,000000000000000E+000	-2,0931917E-001	42	7,2562193E-006
2	1	0	1	0	1,924641866139733E+005	1,6012892E+000	1,6006505E+000	1,260401325133520E-001	1,000000000000000E+000	-2,0521064E-001	40	2,0174621E-004
2	1	0	1	0	1,925741418311769E+005	1,7002488E+000	1,6995518E+000	7,443823965980041E-001	1,000000000000000E+000	-1,6231111E-001	40	1,2651165E-003
2	1	0	1	0	1,926840971483793E+005	1,7992082E+000	1,7986238E+000	8,208612734528278E-001	1,000000000000000E+000	-4,1548211E-002	39	1,4764207E-003
2	1	0	1	0	1,927940524655841E+005	1,8981681E+000	1,8975258E+000	6,893601944568079E-002	1,000000000000000E+000	-1,5320200E-002	40	1,3080788E-004
2	1	0	1	0	1,929041187828067E+005	1,9972277E+000	1,9966067E+000	3,726394365220465E-002	1,000000000000000E+000	-9,7744940E-003	41	7,4401440E-005
2	1	0	1	0	1,930140741000115E+005	2,0961874E+000	2,0955644E+000	2,264888477214272E-002	1,000000000000000E+000	-6,5256204E-003	41	4,7462196E-005
2	1	0	1	0	1,931240292172139E+005	2,1951468E+000	2,1945384E+000	1,718686859835536E-002	1,000000000000000E+000	-4,2993589E-003	41	3,7717244E-005
2	1	0	1	0	1,932339846344173E+005	2,2941060E+000	2,2935047E+000	1,398924708801544E-002	1,000000000000000E+000	-2,5616453E-003	41	3,2084405E-005
2	1	0	1	0	1,933439398516207E+005	2,3930659E+000	2,3924890E+000	1,293405326909986E-002	1,000000000000000E+000	-1,0358320E-003	41	3,0944579E-005
2	1	0	1	0	1,934538951688237E+005	2,4920254E+000	2,4914310E+000	1,248819953814739E-002	1,000000000000000E+000	4,0853431E-004	41	3,1113486E-005
2	1	0	1	0	1,935638503860286E+005	2,5909853E+000	2,5904064E+000	1,270998208254592E-002	1,000000000000000E+000	1,8384706E-003	41	3,2924017E-005
2	1	0	1	0	1,936738057032325E+005	2,6899450E+000	2,6893413E+000	1,379107790822016E-002	1,000000000000000E+000	3,3357532E-003	41	3,7088914E-005
2	1	0	1	1	1,937822062201917E+005	2,6124766E+000	2,6119020E+000	1,794868293661486E-003	1,000000000000000E+000	3,9294139E-003	42	4,6880200E-006
2	0	0	1	1	1,938921614373960E+005	2,5135169E+000	2,5129588E+000	-8,103299089990360E-004	1,000000000000000E+000	3,9250986E-003	42	-2,0363257E-006
2	0	0	1	1	1,940021164546008E+005	2,4145575E+000	2,4140339E+000	-2,428160171132863E-003	1,000000000000000E+000	3,6999984E-003	42	-5,8616611E-006
2	0	0	1	1	1,941120715718046E+005	2,3155973E+000	2,3150682E+000	-3,729516855165092E-003	1,000000000000000E+000	3,3175326E-003	42	-8,6340860E-006
2	0	0	1	1	1,942220266890097E+005	2,2166383E+000	2,2161148E+000	-5,098830255718487E-003	1,000000000000000E+000	2,7913467E-003	42	-1,1299593E-005
2	0	0	1	1	1,943319819062124E+005	2,1176786E+000	2,1171780E+000	-6,846545460317474E-003	1,000000000000000E+000	2,0963363E-003	42	-1,4495356E-005
2	0	0	1	1	1,944419370234157E+005	2,0187190E+000	2,0181148E+000	-9,113348840567512E-003	1,000000000000000E+000	1,1824690E-003	41	-1,8391784E-005
2	0	0	1	1	1,945518922406189E+005	1,9197592E+000	1,9191800E+000	-1,284081620831665E-002	1,000000000000000E+000	-5,2698128E-005	41	-2,4643838E-005
2	0	0	1	1	1,946606256576320E+005	1,8218992E+000	1,8213015E+000	-1,866278582350989E-002	2,000000000000000E+000	-1,7898231E-003	41	-3,3990560E-005
2	0	0	1	1	1,947705808748351E+005	1,7229395E+000	1,7224014E+000	-2,594723940784392E-002	2,000000000000000E+000	-4,2799087E-003	41	-4,4691562E-005
2	0	0	1	1	1,948805360920383E+005	1,6239799E+000	1,6234543E+000	-4,716167441526431E-002	2,000000000000000E+000	-8,0057057E-003	41	-7,6564822E-005
2	0	0	1	1	1,949904913092433E+005	1,5250200E+000	1,5244448E+000	-2,052984760366292E-001	2,000000000000000E+000	-1,8275261E-002	40	-3,1296621E-004
[...]
2	0	0	1	1	1,957588455294613E+005	1,1664666E+000	1,1658427E+000	-5,981314015779093E-002	2,000000000000000E+000	-1,9933365E-001	40	-6,9732712E-005
2	0	0	1	1	1,958688007466639E+005	1,2654260E+000	1,2648298E+000	-3,838789040947832E-002	2,000000000000000E+000	-2,0463356E-001	41	-4,8554146E-005
2	0	0	1	1	1,959787560638683E+005	1,3643856E+000	1,3637949E+000	-2,221989213764902E-002	2,000000000000000E+000	-2,0791951E-001	41	-3,0303376E-005
2	0	0	1	1	1,960887112810728E+005	1,4633454E+000	1,4628218E+000	-5,032054508002613E-003	2,000000000000000E+000	-2,0945062E-001	42	-7,3609995E-006
2	1	0	1	1	1,961986665982776E+005	1,5623051E+000	1,5616580E+000	3,581995671792448E-002	2,000000000000000E+000	-2,0830068E-001	41	5,5938523E-005
2	1	0	1	1	1,963086217154814E+005	1,6612647E+000	1,6605872E+000	4,404140369352456E-001	2,000000000000000E+000	-1,8699998E-001	40	7,3134591E-004
2	1	0	1	1	1,964185771326841E+005	1,7602243E+000	1,7596350E+000	1,307760156908707E+000	2,000000000000000E+000	-9,0505227E-002	39	2,3011805E-003
2	1	0	1	1	1,965285323498877E+005	1,8591840E+000	1,8585944E+000	1,120053274611328E-001	2,000000000000000E+000	-1,9660726E-002	40	2,0817248E-004
2	1	0	1	1	1,966385986671080E+005	1,9582435E+000	1,9575900E+000	4,584181121731123E-002	2,000000000000000E+000	-1,2143607E-002	41	8,9739471E-005
2	1	0	1	1	1,967485538843130E+005	2,0572033E+000	2,0565612E+000	2,737616673213455E-002	2,000000000000000E+000	-8,1574256E-003	41	5,6300763E-005
2	1	0	1	1	1,968585094015175E+005	2,1561625E+000	2,1555593E+000	1,911511038058145E-002	2,000000000000000E+000	-5,6384546E-003	41	4,1203755E-005
2	1	0	1	1	1,969684647187218E+005	2,2551222E+000	2,2545388E+000	1,470891767526998E-002	2,000000000000000E+000	-3,7427582E-003	41	3,3161825E-005
2	1	0	1	1	1,970784199359247E+005	2,3540821E+000	2,3534935E+000	1,314154496914471E-002	2,000000000000000E+000	-2,1732182E-003	41	3,0928539E-005
2	1	0	1	1	1,971883753531281E+005	2,4530418E+000	2,4524405E+000	1,250704641827528E-002	2,000000000000000E+000	-7,1640260E-004	41	3,0672789E-005
2	1	0	1	1	1,972983303703316E+005	2,5520012E+000	2,5514038E+000	1,242194001149965E-002	2,000000000000000E+000	6,9878786E-004	41	3,1693384E-005
2	1	0	1	1	1,974082857875344E+005	2,6509607E+000	2,6503744E+000	1,312347724041193E-002	2,000000000000000E+000	2,1467113E-003	41	3,4782130E-005
2	1	0	1	0	1,975166864044962E+005	2,6514604E+000	2,6508641E+000	3,781994442920156E-003	2,000000000000000E+000	3,2346374E-003	42	1,0025554E-005
2	1	0	1	0	1,976266416216998E+005	2,5525012E+000	2,5519214E+000	1,498590808691973E-005	2,000000000000000E+000	3,3617676E-003	42	3,8242860E-008
2	0	0	1	0	1,977365966389026E+005	2,4535418E+000	2,4529810E+000	-1,835493589308388E-003	2,000000000000000E+000	3,2114496E-003	42	-4,5024308E-006
2	0	0	1	0	1,978465517561063E+005	2,3545816E+000	2,3540354E+000	-3,216733020015881E-003	2,000000000000000E+000	2,8875519E-003	42	-7,5723033E-006
2	0	0	1	0	1,979565069733113E+005	2,2556221E+000	2,2551053E+000	-4,516171703658253E-003	2,000000000000000E+000	2,4213472E-003	42	-1,0184443E-005
2	0	0	1	0	1,980664620905155E+005	2,1566625E+000	2,1561773E+000	-6,049595402339319E-003	2,000000000000000E+000	1,8013536E-003	42	-1,3044000E-005
2	0	0	1	0	1,981764172077202E+005	2,0577028E+000	2,0571885E+000	-8,086093677278312E-003	2,000000000000000E+000	9,8616024E-004	42	-1,6634620E-005
2	0	0	1	0	1,982863724249231E+005	1,9587431E+000	1,9581465E+000	-1,105866400040495E-002	2,000000000000000E+000	-9,7325144E-005	41	-2,1654483E-005
2	0	0	1	0	1,983721502383440E+005	1,8815254E+000	1,8809471E+000	-1,492132034538121E-002	2,000000000000000E+000	-1,2319421E-003	41	-2,8066215E-005

File: CV_LTO-C_Al_slurrymia_01_1mVs_10_CV_C03.mpt
EC-Lab ASCII FILE
Nb header lines : 63

Cyclic Voltammetry

Run on channel : 3 (SN 6807)
User :
Electrode connection : standard
Ewe ctrl range : min = 0,00 V, max = 5,00 V
Ewe,I filtering : 50 kHz
Safety Limits :
	Do not start on E overload
Channel : Grounded
Acquisition started on : 10/27/2020 18:19:16
Saved on :
	File : CV_LTO-C_Al_slurrymia_01_1mVs_10_CV_C03.mpr
	Directory : C:\Users\labsuperfici\Desktop\Biologic\Users\Prisca Viviani\201027\
	Host : 10.78.33.0
Device : VSP-300 (SN 0638)
Address : USB
EC-Lab for windows v11.31 (software)
Internet server v11.30 (firmware)
Command interpretor v11.31 (firmware)
Electrode material :
Initial state :
Electrolyte :
Comments :
Cable : standard
Reference electrode : SCE Saturated Calomel Electrode (0,241 V)
Electrode surface area : 0,001 cm²
Characteristic mass : 0,001 g
Equivalent Weight : 0,000 g/eq.
Density : 0,000 g/cm3
Cycle Definition : Charge/Discharge alternance
Ei (V)              0,000
vs.                 Eoc
dE/dt               1,000
dE/dt unit          mV/s
E1 (V)              1,000
vs.                 Ref
Step percent        50
N                   10
E range min (V)     0,000
E range max (V)     5,000
I Range             Auto
I Range min         Unset
I Range max         Unset
I Range init        Unset
Bandwidth           8
E2 (V)              3,000
vs.                 Ref
nc cycles           2
Reverse Scan        1
Ef (V)              0,000
vs.                 Eoc

Modify on : 10/28/2020 10:35
nc cycles           1

Modify on : 10/28/2020 10:37
E2 (V)              2,700

mode	ox/red	error	control changes	counter inc.	time/s	control/V	Ewe/V	<I>/mA	cycle number	(Q-Qo)/C	I Range	P/W
2	0	0	1	0	1,983723504383746E+005	1,8815254E+000	1,8809662E+000	-1,737566664814949E-002	1,000000000000000E+000	0,0000000E+000	41	-3,2683041E-005
2	0	0	1	0	1,984708603537873E+005	1,7830149E+000	1,7824485E+000	-2,315465591426860E-002	1,000000000000000E+000	-1,9239119E-003	41	-4,1271982E-005
2	0	0	1	0	1,985698200692711E+005	1,6840552E+000	1,6834940E+000	-3,312695296867896E-002	1,000000000000000E+000	-4,7066389E-003	41	-5,5769025E-005
2	0	0	1	0	1,986687796847553E+005	1,5850955E+000	1,5845963E+000	-7,774414665339746E-002	1,000000000000000E+000	-9,6617872E-003	41	-1,2319308E-004
2	0	0	1	0	1,987677393002380E+005	1,4861360E+000	1,4855860E+000	-3,944106533792873E-001	1,000000000000000E+000	-2,9134482E-002	40	-5,8593095E-004
2	0	0	1	0	1,988666989157214E+005	1,3871764E+000	1,3866491E+000	-4,178974447877364E-001	1,000000000000000E+000	-7,2698452E-002	40	-5,7947711E-004
2	0	0	1	0	1,989656585312046E+005	1,2882168E+000	1,2876887E+000	-3,128526755032608E-001	1,000000000000000E+000	-1,0869654E-001	40	-4,0285685E-004
2	0	0	1	0	1,990646181466887E+005	1,1892571E+000	1,1886840E+000	-2,421568758203405E-001	1,000000000000000E+000	-1,3592131E-001	40	-2,8784800E-004
2	0	0	1	0	1,991635777621719E+005	1,0902977E+000	1,0897266E+000	-1,991989928662607E-001	1,000000000000000E+000	-1,5760162E-001	40	-2,1707243E-004
2	0	0	1	0	1,992614385774826E+005	1,0075314E+000	1,0069206E+000	-1,594831583249512E-001	1,000000000000000E+000	-1,7583477E-001	40	-1,6058687E-004
2	0	0	1	0	1,993603981929664E+005	1,1064910E+000	1,1059026E+000	-9,049357406057207E-002	1,000000000000000E+000	-1,8745989E-001	40	-1,0007707E-004
2	0	0	1	0	1,994593578084505E+005	1,2054505E+000	1,2048401E+000	-6,092958648812974E-002	1,000000000000000E+000	-1,9480307E-001	40	-7,3410403E-005
2	0	0	1	0	1,995583176239338E+005	1,3044102E+000	1,3038350E+000	-4,079979140404799E-002	1,000000000000000E+000	-1,9977133E-001	41	-5,3196196E-005
2	0	0	1	0	1,996572772394167E+005	1,4033698E+000	1,4027708E+000	-2,331700166679856E-002	1,000000000000000E+000	-2,0292658E-001	41	-3,2708409E-005
2	1	0	1	0	1,997563368549165E+005	1,5024296E+000	1,5018317E+000	6,865489099655807E-004	1,000000000000000E+000	-2,0415115E-001	42	1,0310808E-006
2	1	0	1	0	1,998552965703994E+005	1,6013892E+000	1,6007916E+000	1,323594869343827E-001	1,000000000000000E+000	-2,0049597E-001	40	2,1187995E-004
2	1	0	1	0	1,999542562858826E+005	1,7003487E+000	1,6996589E+000	7,597416943861077E-001	1,000000000000000E+000	-1,6037272E-001	40	1,2913017E-003
2	1	0	1	0	2,000532160013663E+005	1,7993084E+000	1,7987663E+000	1,004215968712555E+000	1,000000000000000E+000	-4,6647377E-002	39	1,8063498E-003
2	1	0	1	0	2,001521757168495E+005	1,8982679E+000	1,8976804E+000	8,141639653520916E-002	1,000000000000000E+000	-1,5533252E-002	40	1,5450230E-004
2	1	0	1	0	2,002511353323329E+005	1,9972274E+000	1,9966046E+000	4,271254698356438E-002	1,000000000000000E+000	-9,7817797E-003	41	8,5280066E-005
2	1	0	1	0	2,003500952478158E+005	2,0961871E+000	2,0955589E+000	2,652936541961176E-002	1,000000000000000E+000	-6,3799950E-003	41	5,5593846E-005
2	1	0	1	0	2,004490548633002E+005	2,1951468E+000	2,1945224E+000	1,921707153262608E-002	1,000000000000000E+000	-4,1384376E-003	41	4,2172294E-005
2	1	0	1	0	2,005480146787835E+005	2,2941062E+000	2,2934811E+000	1,522003065629568E-002	1,000000000000000E+000	-2,4140966E-003	41	3,4906854E-005
2	1	0	1	0	2,006469743942665E+005	2,3930659E+000	2,3924978E+000	1,396636432402570E-002	1,000000000000000E+000	-9,2945190E-004	41	3,3414497E-005
2	1	0	1	0	2,007459342097500E+005	2,4920256E+000	2,4914229E+000	1,348810599378350E-002	1,000000000000000E+000	4,7296809E-004	41	3,3604578E-005
2	1	0	1	0	2,008448940252333E+005	2,5909851E+000	2,5904100E+000	1,368786781292157E-002	1,000000000000000E+000	1,8588980E-003	41	3,5457189E-005
2	1	0	1	0	2,009438538407166E+005	2,6899447E+000	2,6893528E+000	1,483654685206685E-002	1,000000000000000E+000	3,3086629E-003	41	3,9900708E-005
2	1	0	1	1	2,010414141559815E+005	2,6124766E+000	2,6118784E+000	1,914439394293834E-003	1,000000000000000E+000	3,8823052E-003	42	5,0002827E-006
2	0	0	1	1	2,011403737714650E+005	2,5135169E+000	2,5129592E+000	-8,273657814984355E-004	1,000000000000000E+000	3,8807297E-003	42	-2,0791365E-006
2	0	0	1	1	2,012393333869483E+005	2,4145575E+000	2,4140186E+000	-2,601893482771706E-003	1,000000000000000E+000	3,6650042E-003	42	-6,2810195E-006
2	0	0	1	1	2,013382930024315E+005	2,3155978E+000	2,3150537E+000	-4,033193983456300E-003	1,000000000000000E+000	3,2947138E-003	42	-9,3370609E-006
2	0	0	1	1	2,014372526179145E+005	2,2166383E+000	2,2161176E+000	-5,536187570709214E-003	1,000000000000000E+000	2,7835681E-003	42	-1,2268843E-005
2	0	0	1	1	2,015362123333989E+005	2,1176782E+000	2,1172013E+000	-7,383763895888795E-003	1,000000000000000E+000	2,1085371E-003	42	-1,5632915E-005
2	0	0	1	1	2,016351719488814E+005	2,0187187E+000	2,0181365E+000	-9,832462202152857E-003	1,000000000000000E+000	1,2213179E-003	41	-1,9843252E-005
2	0	0	1	1	2,017341316643646E+005	1,9197592E+000	1,9191937E+000	-1,376630691871655E-002	1,000000000000000E+000	2,7859705E-005	41	-2,6420210E-005
2	0	0	1	1	2,018319916796768E+005	1,8218991E+000	1,8213151E+000	-2,010265396526989E-002	2,000000000000000E+000	-1,6517321E-003	41	-3,6613266E-005
2	0	0	1	1	2,019309513951602E+005	1,7229394E+000	1,7224224E+000	-2,839706005522247E-002	2,000000000000000E+000	-4,0828916E-003	41	-4,8911730E-005
2	0	0	1	1	2,020299110106435E+005	1,6239797E+000	1,6234406E+000	-5,161229985971921E-002	2,000000000000000E+000	-7,7525172E-003	41	-8,3789506E-005
2	0	0	1	1	2,021288706261264E+005	1,5250201E+000	1,5244441E+000	-2,093474262269917E-001	2,000000000000000E+000	-1,7589867E-002	40	-3,1913846E-004
[...]
2	0	0	1	1	2,028203893343232E+005	1,1664665E+000	1,1658758E+000	-7,055659850103990E-002	2,000000000000000E+000	-1,9213428E-001	40	-8,2260231E-005
2	0	0	1	1	2,029193489498068E+005	1,2654260E+000	1,2648790E+000	-4,810797854560639E-002	2,000000000000000E+000	-1,9792213E-001	41	-6,0850773E-005
2	0	0	1	1	2,030183086652895E+005	1,3643858E+000	1,3638170E+000	-3,058351025466516E-002	2,000000000000000E+000	-2,0177847E-001	41	-4,1710311E-005
2	0	0	1	1	2,031172683807726E+005	1,4633455E+000	1,4627620E+000	-1,108268886538641E-002	2,000000000000000E+000	-2,0387484E-001	41	-1,6211336E-005
2	1	0	1	1	2,032163279962719E+005	1,5624050E+000	1,5617578E+000	3,554223232574683E-002	2,000000000000000E+000	-2,0318016E-001	41	5,5508357E-005
2	1	0	1	1	2,033152877117554E+005	1,6613647E+000	1,6606656E+000	4,558539440428069E-001	2,000000000000000E+000	-1,8325421E-001	40	7,5702096E-004
2	1	0	1	1	2,034142474272391E+005	1,7603241E+000	1,7597454E+000	1,342001259393825E+000	2,000000000000000E+000	-9,5376499E-002	39	2,3615805E-003
2	1	0	1	1	2,035132071427219E+005	1,8592839E+000	1,8586748E+000	1,415513809215851E-001	2,000000000000000E+000	-2,0113191E-002	40	2,6309799E-004
2	1	0	1	1	2,036121668582056E+005	1,9582435E+000	1,9576491E+000	5,274397824262195E-002	2,000000000000000E+000	-1,2109597E-002	40	1,0325420E-004
2	1	0	1	1	2,037111264736885E+005	2,0572031E+000	2,0565834E+000	3,178365870614297E-002	2,000000000000000E+000	-7,9728309E-003	41	6,5365748E-005
2	1	0	1	1	2,038100862891730E+005	2,1561625E+000	2,1555760E+000	2,109294123536504E-002	2,000000000000000E+000	-5,3852792E-003	41	4,5467437E-005
2	1	0	1	1	2,039090461046563E+005	2,2551224E+000	2,2544911E+000	1,636041293040577E-002	2,000000000000000E+000	-3,4988620E-003	41	3,6884405E-005
2	1	0	1	1	2,040080059201391E+005	2,3540821E+000	2,3535078E+000	1,425229112919690E-002	2,000000000000000E+000	-1,9617307E-003	41	3,3542878E-005
2	1	0	1	1	2,041069655356228E+005	2,4530413E+000	2,4524610E+000	1,351183277042107E-002	2,000000000000000E+000	-5,4527528E-004	41	3,3137243E-005
2	1	0	1	1	2,042059252511058E+005	2,5520010E+000	2,5514288E+000	1,339380276460077E-002	2,000000000000000E+000	8,2887826E-004	41	3,4173336E-005
2	1	0	1	1	2,043048850665893E+005	2,6509609E+000	2,6503966E+000	1,413252721107178E-002	2,000000000000000E+000	2,2297350E-003	41	3,7456801E-005
2	1	0	1	0	2,044024456818542E+005	2,6514606E+000	2,6508486E+000	4,024799837506823E-003	2,000000000000000E+000	3,2792231E-003	42	1,0669135E-005
2	1	0	1	0	2,045014054973379E+005	2,5525010E+000	2,5519388E+000	2,081861355662190E-006	2,000000000000000E+000	3,4022790E-003	42	5,3127827E-009
2	0	0	1	0	2,046003649128210E+005	2,4535413E+000	2,4529908E+000	-2,026661262174143E-003	2,000000000000000E+000	3,2575463E-003	42	-4,9713813E-006
2	0	0	1	0	2,046993246283045E+005	2,3545816E+000	2,3540511E+000	-3,530675189871102E-003	2,000000000000000E+000	2,9429705E-003	42	-8,3113900E-006
2	0	0	1	0	2,047982842437874E+005	2,2556221E+000	2,2550964E+000	-4,911677038556841E-003	2,000000000000000E+000	2,4886883E-003	42	-1,1076306E-005
2	0	0	1	0	2,048972439592713E+005	2,1566625E+000	2,1561730E+000	-6,602287648944986E-003	2,000000000000000E+000	1,8842984E-003	42	-1,4235674E-005
2	0	0	1	0	2,049962035747541E+005	2,0577030E+000	2,0572362E+000	-8,777633127362433E-003	2,000000000000000E+000	1,0910849E-003	42	-1,8057664E-005
2	0	0	1	0	2,050951632902380E+005	1,9587433E+000	1,9581647E+000	-1,188241242108444E-002	2,000000000000000E+000	4,0310413E-005	41	-2,3267721E-005
2	0	0	0	0	2,051723633023151E+005	1,8815254E+000	1,8809509E+000	-1,597346567732703E-002	2,000000000000000E+000	-1,0563231E-003	41	-3,0045305E-005