Folder: Randles-Sevcik/Dati/201027 (part 2)

File: CV_LTO-C_Al_slurrymia_01_1mVs_03_CV_C03.mpt
EC-Lab ASCII FILE
Nb header lines : 63

Cyclic Voltammetry

Run on channel : 3 (SN 6807)
User :
Electrode connection : standard
Ewe ctrl range : min = 0,00 V, max = 5,00 V
Ewe,I filtering : 50 kHz
Safety Limits :
	Do not start on E overload
Channel : Grounded
Acquisition started on : 10/27/2020 18:19:16
Saved on :
	File : CV_LTO-C_Al_slurrymia_01_1mVs_03_CV_C03.mpr
	Directory : C:\Users\labsuperfici\Desktop\Biologic\Users\Prisca Viviani\201027\
	Host : 10.78.33.0
Device : VSP-300 (SN 0638)
Address : USB
EC-Lab for windows v11.31 (software)
Internet server v11.30 (firmware)
Command interpretor v11.31 (firmware)
Electrode material :
Initial state :
Electrolyte :
Comments :
Cable : standard
Reference electrode : SCE Saturated Calomel Electrode (0,241 V)
Electrode surface area : 0,001 cm²
Characteristic mass : 0,001 g
Equivalent Weight : 0,000 g/eq.
Density : 0,000 g/cm3
Cycle Definition : Charge/Discharge alternance
Ei (V)              0,000
vs.                 Eoc
dE/dt               0,300
dE/dt unit          mV/s
E1 (V)              1,000
vs.                 Ref
Step percent        50
N                   10
E range min (V)     0,000
E range max (V)     5,000
I Range             Auto
I Range min         Unset
I Range max         Unset
I Range init        Unset
Bandwidth           8
E2 (V)              3,000
vs.                 Ref
nc cycles           2
Reverse Scan        1
Ef (V)              0,000
vs.                 Eoc

Modify on : 10/28/2020 10:35
nc cycles           1

Modify on : 10/28/2020 10:37
E2 (V)              2,700

mode	ox/red	error	control changes	counter inc.	time/s	control/V	Ewe/V	<I>/mA	cycle number	(Q-Qo)/C	I Range	P/W
2	0	0	1	0	1,080005443657590E+005	1,8815254E+000	1,8810196E+000	-4,609875846654177E-003	1,000000000000000E+000	0,0000000E+000	42	-8,6712671E-006
2	0	0	1	0	1,083255783888880E+005	1,7840145E+000	1,7835652E+000	-8,675273555474615E-003	1,000000000000000E+000	-2,2714240E-003	42	-1,5472915E-005
2	0	0	1	0	1,086521119116682E+005	1,6860546E+000	1,6855055E+000	-1,130082808837321E-002	1,000000000000000E+000	-5,5869757E-003	41	-1,9047608E-005
2	0	0	1	0	1,089786455344437E+005	1,5880945E+000	1,5875556E+000	-2,363630289359175E-002	1,000000000000000E+000	-1,0704677E-002	41	-3,7523947E-005
2	0	0	1	0	1,093051789571901E+005	1,4901345E+000	1,4895720E+000	-1,337751308496610E-001	1,000000000000000E+000	-3,1184623E-002	40	-1,9926770E-004
2	0	0	1	0	1,096317123799357E+005	1,3921745E+000	1,3916321E+000	-1,827074332674785E-001	1,000000000000000E+000	-8,7318845E-002	40	-2,5426151E-004
2	0	0	1	0	1,099582460026848E+005	1,2942144E+000	1,2936482E+000	-1,413784207689053E-001	1,000000000000000E+000	-1,4067906E-001	40	-1,8289394E-004
2	0	0	1	0	1,102847792254626E+005	1,1962545E+000	1,1956563E+000	-9,785091757447562E-002	1,000000000000000E+000	-1,7989093E-001	40	-1,1699607E-004
2	0	0	1	0	1,106113128482426E+005	1,0982944E+000	1,0977414E+000	-6,061178900759845E-002	1,000000000000000E+000	-2,0535368E-001	40	-6,6536071E-005
2	0	0	1	0	1,109376795710468E+005	1,0003846E+000	9,9983418E-001	-4,268994889334604E-002	1,000000000000000E+000	-2,2162825E-001	41	-4,2682870E-005
2	0	0	1	0	1,112607152946256E+005	1,0964950E+000	1,0959371E+000	-8,778135599452813E-003	1,000000000000000E+000	-2,2808509E-001	41	-9,6202848E-006
2	0	0	1	0	1,115872495173675E+005	1,1944551E+000	1,1938947E+000	-1,200110680353849E-003	1,000000000000000E+000	-2,2945853E-001	42	-1,4328058E-006
2	1	0	1	0	1,119141169400421E+005	1,2925152E+000	1,2919301E+000	1,639072161315654E-003	1,000000000000000E+000	-2,2930875E-001	42	2,1175667E-006
2	1	0	1	0	1,122406507628197E+005	1,3904752E+000	1,3898932E+000	3,761032246183099E-003	1,000000000000000E+000	-2,2841945E-001	42	5,2274331E-006
2	1	0	1	0	1,125671849855983E+005	1,4884354E+000	1,4878200E+000	8,396748504247903E-003	1,000000000000000E+000	-2,2653902E-001	42	1,2492851E-005
2	1	0	1	0	1,128937192083623E+005	1,5863951E+000	1,5857861E+000	3,259518759321564E-002	1,000000000000000E+000	-2,2131488E-001	41	5,1688996E-005
2	1	0	1	0	1,132202532311045E+005	1,6843551E+000	1,6837928E+000	1,942178234649679E-001	1,000000000000000E+000	-1,8622075E-001	40	3,2702257E-004
2	1	0	1	0	1,135467874538476E+005	1,7823154E+000	1,7817012E+000	3,642940398258503E-001	1,000000000000000E+000	-7,1422413E-002	40	6,4906315E-004
2	1	0	1	0	1,138733214766161E+005	1,8802755E+000	1,8796719E+000	2,970572227759960E-002	1,000000000000000E+000	-1,8742312E-002	41	5,5837012E-005
2	1	0	1	0	1,141998554993935E+005	1,9782354E+000	1,9776798E+000	1,129128783404050E-002	1,000000000000000E+000	-1,3409963E-002	41	2,2330552E-005
2	1	0	1	0	1,145263901221720E+005	2,0761955E+000	2,0756681E+000	7,812430764001829E-003	1,000000000000000E+000	-1,0326670E-002	41	1,6216014E-005
2	1	0	1	0	1,148529241449216E+005	2,1741555E+000	2,1736314E+000	7,014731604528646E-003	1,000000000000000E+000	-7,8609344E-003	41	1,5247441E-005
2	1	0	1	0	1,151794581676633E+005	2,2721152E+000	2,2716146E+000	6,371515165942809E-003	1,000000000000000E+000	-5,6276582E-003	41	1,4473627E-005
2	1	0	1	0	1,155059925904125E+005	2,3700755E+000	2,3695633E+000	5,866823531189863E-003	1,000000000000000E+000	-3,5832720E-003	41	1,3901810E-005
2	1	0	1	0	1,158325266131905E+005	2,4680357E+000	2,4675193E+000	5,556672193344783E-003	1,000000000000000E+000	-1,6767227E-003	41	1,3711196E-005
2	1	0	1	0	1,161590606359675E+005	2,5659957E+000	2,5654762E+000	5,510291093968329E-003	1,000000000000000E+000	1,7311113E-004	41	1,4136521E-005
2	1	0	1	0	1,164855946587372E+005	2,6639557E+000	2,6634498E+000	5,711116289573000E-003	1,000000000000000E+000	2,0483907E-003	41	1,5211272E-005
2	1	0	1	1	1,168074636825917E+005	2,6394653E+000	2,6389883E+000	1,163119927428576E-003	1,000000000000000E+000	3,2315073E-003	42	3,0694598E-006
2	0	0	1	1	1,171339967053363E+005	2,5415056E+000	2,5410569E+000	-2,072947046757607E-004	1,000000000000000E+000	3,3054389E-003	43	-5,2674761E-007
2	0	0	1	1	1,174605294280828E+005	2,4435453E+000	2,4430532E+000	-7,727343737431724E-004	1,000000000000000E+000	3,0999300E-003	42	-1,8878312E-006
2	0	0	1	1	1,177870622508588E+005	2,3455853E+000	2,3451111E+000	-1,252613644341437E-003	1,000000000000000E+000	2,7252212E-003	42	-2,9375183E-006
2	0	0	1	1	1,181135954736391E+005	2,2476251E+000	2,2471416E+000	-1,774237602500005E-003	1,000000000000000E+000	2,1887755E-003	42	-3,9869633E-006
2	0	0	1	1	1,184401278964109E+005	2,1496654E+000	2,1491880E+000	-2,421441781932709E-003	1,000000000000000E+000	1,4642732E-003	42	-5,2041337E-006
2	0	0	1	1	1,187666607191537E+005	2,0517054E+000	2,0512319E+000	-3,254707785453642E-003	1,000000000000000E+000	4,9987272E-004	42	-6,6761604E-006
2	0	0	1	1	1,190931939418982E+005	1,9537452E+000	1,9532770E+000	-4,538510082389501E-003	1,000000000000000E+000	-7,9854467E-004	42	-8,8649676E-006
2	0	0	1	1	1,194160620655180E+005	1,8568850E+000	1,8564403E+000	-6,512722948790841E-003	2,000000000000000E+000	-2,6019739E-003	42	-1,2090482E-005
2	0	0	1	1	1,197425956882962E+005	1,7589247E+000	1,7585015E+000	-9,263512765047527E-003	2,000000000000000E+000	-5,2230498E-003	42	-1,6289901E-005
2	0	0	1	1	1,200691293110738E+005	1,6609648E+000	1,6604267E+000	-1,230610722110375E-002	2,000000000000000E+000	-8,6947493E-003	41	-2,0433390E-005
2	0	0	1	1	1,203956625338437E+005	1,5630049E+000	1,5625063E+000	-3,260759697901972E-002	2,000000000000000E+000	-1,5128302E-002	41	-5,0949577E-005
[...]
2	0	0	1	1	1,230039338168448E+005	1,2194450E+000	1,2188710E+000	-1,191611300531130E-003	2,000000000000000E+000	-2,2945258E-001	42	-1,4524204E-006
2	1	0	1	1	1,233304678396041E+005	1,3174050E+000	1,3167976E+000	1,555863511501632E-003	2,000000000000000E+000	-2,2933342E-001	42	2,0487573E-006
2	1	0	1	1	1,236570022623842E+005	1,4153651E+000	1,4147700E+000	4,072666693334476E-003	2,000000000000000E+000	-2,2842622E-001	42	5,7618868E-006
2	1	0	1	1	1,239835358851613E+005	1,5133250E+000	1,5127717E+000	1,000540075909190E-002	2,000000000000000E+000	-2,2628622E-001	42	1,5135887E-005
2	1	0	1	1	1,243100703079179E+005	1,6112849E+000	1,6106579E+000	6,537538621499750E-002	2,000000000000000E+000	-2,1817562E-001	41	1,0529738E-004
2	1	0	1	1	1,246366047306622E+005	1,7092452E+000	1,7086390E+000	3,185378616569066E-001	2,000000000000000E+000	-1,6503602E-001	40	5,4426619E-004
2	1	0	1	1	1,249631385534045E+005	1,8072051E+000	1,8066323E+000	2,308648296413480E-001	2,000000000000000E+000	-4,1477464E-002	40	4,1708787E-004
2	1	0	1	1	1,252896727761795E+005	1,9051652E+000	1,9046111E+000	1,657333808469941E-002	2,000000000000000E+000	-1,7399399E-002	41	3,1565763E-005
2	1	0	1	1	1,256162073989576E+005	2,0031252E+000	2,0025856E+000	9,980851923821130E-003	2,000000000000000E+000	-1,3316668E-002	41	1,9987510E-005
2	1	0	1	1	1,259427410217316E+005	2,1010852E+000	2,1005456E+000	7,344856050904208E-003	2,000000000000000E+000	-1,0553364E-002	41	1,5428206E-005
2	1	0	1	1	1,262692754444778E+005	2,1990454E+000	2,1985290E+000	6,609931991950840E-003	2,000000000000000E+000	-8,2208598E-003	41	1,4532127E-005
2	1	0	1	1	1,265958094672207E+005	2,2970052E+000	2,2964840E+000	6,015509101268648E-003	2,000000000000000E+000	-6,1066463E-003	41	1,3814521E-005
2	1	0	1	1	1,269223434899734E+005	2,3949656E+000	2,3944607E+000	5,557767648602094E-003	2,000000000000000E+000	-4,1671372E-003	41	1,3307857E-005
2	1	0	1	1	1,272488775127537E+005	2,4929252E+000	2,4924357E+000	5,211914155631603E-003	2,000000000000000E+000	-2,3556636E-003	41	1,2990361E-005
2	1	0	1	1	1,275754115355317E+005	2,5908852E+000	2,5903704E+000	5,122177304467512E-003	2,000000000000000E+000	-6,3000561E-004	41	1,3268336E-005
2	1	0	1	1	1,279019459582928E+005	2,6888454E+000	2,6883764E+000	5,414016712246464E-003	2,000000000000000E+000	1,1354225E-003	41	1,4554915E-005
2	1	0	1	0	1,282241477820690E+005	2,6144757E+000	2,6139836E+000	5,093576107680696E-004	2,000000000000000E+000	1,8320836E-003	43	1,3314525E-006
2	0	0	1	0	1,285506806048142E+005	2,5165155E+000	2,5161333E+000	-4,404824690317586E-004	2,000000000000000E+000	1,7884178E-003	43	-1,1083126E-006
2	0	0	1	0	1,288772130275667E+005	2,4185557E+000	2,4180958E+000	-9,000865494611029E-004	2,000000000000000E+000	1,5297447E-003	42	-2,1764956E-006
2	0	0	1	0	1,292037462503442E+005	2,3205960E+000	2,3201549E+000	-1,352693760454331E-003	2,000000000000000E+000	1,1191578E-003	42	-3,1384591E-006
2	0	0	1	0	1,295302786731240E+005	2,2226355E+000	2,2221859E+000	-1,861372480144051E-003	2,000000000000000E+000	5,5437401E-004	42	-4,1363155E-006
2	0	0	1	0	1,298568119958870E+005	2,1246755E+000	2,1242085E+000	-2,512748832082362E-003	2,000000000000000E+000	-1,9786785E-004	42	-5,3376025E-006
2	0	0	1	0	1,301833444186307E+005	2,0267153E+000	2,0262995E+000	-3,368714315046276E-003	2,000000000000000E+000	-1,1914405E-003	42	-6,8260242E-006
2	0	0	1	0	1,305098778413758E+005	1,9287556E+000	1,9283069E+000	-4,679989951306026E-003	2,000000000000000E+000	-2,5290940E-003	42	-9,0244575E-006
2	0	0	0	0	1,306672516041523E+005	1,8815254E+000	1,8810768E+000	-5,618252712069977E-003	2,000000000000000E+000	-3,3552151E-003	42	-1,0568365E-005

File: CV_LTO-C_Al_slurrymia_01_1mVs_04_CV_C03.mpt
EC-Lab ASCII FILE
Nb header lines : 63

Cyclic Voltammetry

Run on channel : 3 (SN 6807)
User :
Electrode connection : standard
Ewe ctrl range : min = 0,00 V, max = 5,00 V
Ewe,I filtering : 50 kHz
Safety Limits :
	Do not start on E overload
Channel : Grounded
Acquisition started on : 10/27/2020 18:19:16
Saved on :
	File : CV_LTO-C_Al_slurrymia_01_1mVs_04_CV_C03.mpr
	Directory : C:\Users\labsuperfici\Desktop\Biologic\Users\Prisca Viviani\201027\
	Host : 10.78.33.0
Device : VSP-300 (SN 0638)
Address : USB
EC-Lab for windows v11.31 (software)
Internet server v11.30 (firmware)
Command interpretor v11.31 (firmware)
Electrode material :
Initial state :
Electrolyte :
Comments :
Cable : standard
Reference electrode : SCE Saturated Calomel Electrode (0,241 V)
Electrode surface area : 0,001 cm²
Characteristic mass : 0,001 g
Equivalent Weight : 0,000 g/eq.
Density : 0,000 g/cm3
Cycle Definition : Charge/Discharge alternance
Ei (V)              0,000
vs.                 Eoc
dE/dt               0,400
dE/dt unit          mV/s
E1 (V)              1,000
vs.                 Ref
Step percent        50
N                   10
E range min (V)     0,000
E range max (V)     5,000
I Range             Auto
I Range min         Unset
I Range max         Unset
I Range init        Unset
Bandwidth           8
E2 (V)              3,000
vs.                 Ref
nc cycles           2
Reverse Scan        1
Ef (V)              0,000
vs.                 Eoc

Modify on : 10/28/2020 10:35
nc cycles           1

Modify on : 10/28/2020 10:37
E2 (V)              2,700

mode	ox/red	error	control changes	counter inc.	time/s	control/V	Ewe/V	<I>/mA	cycle number	(Q-Qo)/C	I Range	P/W
2	0	0	1	0	1,306676016040691E+005	1,8815254E+000	1,8810577E+000	-5,861883051693439E-003	1,000000000000000E+000	0,0000000E+000	42	-1,1026540E-005
2	0	0	1	0	1,309113768464433E+005	1,7840147E+000	1,7835259E+000	-1,022836393598872E-002	1,000000000000000E+000	-1,9980266E-003	41	-1,8242552E-005
2	0	0	1	0	1,311562767216330E+005	1,6860545E+000	1,6855599E+000	-1,420153984476552E-002	1,000000000000000E+000	-5,0409501E-003	41	-2,3937546E-005
2	0	0	1	0	1,314011768599483E+005	1,5880947E+000	1,5875782E+000	-2,835322701420973E-002	1,000000000000000E+000	-9,7712213E-003	41	-4,5012963E-005
2	0	0	1	0	1,316460767982670E+005	1,4901346E+000	1,4896369E+000	-1,305919149734930E-001	1,000000000000000E+000	-2,5698552E-002	40	-1,9453453E-004
2	0	0	1	0	1,318909766365848E+005	1,3921745E+000	1,3916918E+000	-1,802968931563345E-001	1,000000000000000E+000	-6,6852219E-002	40	-2,5091771E-004
2	0	0	1	0	1,321358766749015E+005	1,2942145E+000	1,2937171E+000	-1,509404388440858E-001	1,000000000000000E+000	-1,0789219E-001	40	-1,9527423E-004
2	0	0	1	0	1,323807765132203E+005	1,1962544E+000	1,1957278E+000	-1,196028114527157E-001	1,000000000000000E+000	-1,4089355E-001	40	-1,4301241E-004
2	0	0	1	0	1,326256766515356E+005	1,0982945E+000	1,0977702E+000	-9,541923737503810E-002	1,000000000000000E+000	-1,6706514E-001	40	-1,0474840E-004
2	0	0	1	0	1,328703262898152E+005	1,0004344E+000	9,9988061E-001	-7,954239448750444E-002	1,000000000000000E+000	-1,8834293E-001	40	-7,9532896E-005
2	0	0	1	0	1,331127284277421E+005	1,0964952E+000	1,0960238E+000	-3,807823517243336E-002	1,000000000000000E+000	-2,0136012E-001	41	-4,1734653E-005
2	0	0	1	0	1,333576286660577E+005	1,1944551E+000	1,1939731E+000	-2,148065135171834E-002	1,000000000000000E+000	-2,0842905E-001	41	-2,5647319E-005
2	0	0	1	0	1,336025290043771E+005	1,2924151E+000	1,2918928E+000	-1,198449420039741E-002	1,000000000000000E+000	-2,1242324E-001	41	-1,5482681E-005
2	0	0	1	0	1,338474293426946E+005	1,3903751E+000	1,3898753E+000	-5,182825809701683E-003	1,000000000000000E+000	-2,1449076E-001	41	-7,2034813E-006
2	1	0	1	0	1,340925795810506E+005	1,4884353E+000	1,4878805E+000	2,925394334890094E-003	1,000000000000000E+000	-2,1484706E-001	42	4,3526370E-006
2	1	0	1	0	1,343374798193695E+005	1,5863953E+000	1,5858291E+000	2,672414452472308E-002	1,000000000000000E+000	-2,1195692E-001	41	4,2379928E-005
2	1	0	1	0	1,345823802576847E+005	1,6843554E+000	1,6838396E+000	1,620743966605569E-001	1,000000000000000E+000	-1,9091241E-001	40	2,7290729E-004
2	1	0	1	0	1,348272804960033E+005	1,7823153E+000	1,7817010E+000	5,263737599933851E-001	1,000000000000000E+000	-1,0799640E-001	40	9,3784061E-004
2	1	0	1	0	1,350721809343211E+005	1,8802755E+000	1,8797470E+000	1,197579926647161E-001	1,000000000000000E+000	-2,1515490E-002	40	2,2511474E-004
2	1	0	1	0	1,353170811726374E+005	1,9782352E+000	1,9776992E+000	1,658338820807981E-002	1,000000000000000E+000	-1,1839243E-002	41	3,2796954E-005
2	1	0	1	0	1,355619819109566E+005	2,0761952E+000	2,0757267E+000	1,124713256435220E-002	1,000000000000000E+000	-8,5288631E-003	41	2,3345974E-005
2	1	0	1	0	1,358068826492736E+005	2,1741555E+000	2,1736562E+000	8,446399109953220E-003	1,000000000000000E+000	-6,1531616E-003	41	1,8359568E-005
2	1	0	1	0	1,360517830875906E+005	2,2721152E+000	2,2716196E+000	7,632962301513252E-003	1,000000000000000E+000	-4,1499818E-003	41	1,7339187E-005
2	1	0	1	0	1,362966842259099E+005	2,3700755E+000	2,3696213E+000	7,048764392555751E-003	1,000000000000000E+000	-2,3157506E-003	41	1,6702903E-005
2	1	0	1	0	1,365415849642260E+005	2,4680359E+000	2,4675374E+000	6,748624229373328E-003	1,000000000000000E+000	-5,8505393E-004	41	1,6652482E-005
2	1	0	1	0	1,367864853025436E+005	2,5659957E+000	2,5655272E+000	6,664963255409814E-003	1,000000000000000E+000	1,0943502E-003	41	1,7099144E-005
2	1	0	1	0	1,370313857408627E+005	2,6639557E+000	2,6634970E+000	6,899523248344072E-003	1,000000000000000E+000	2,7917025E-003	41	1,8376859E-005
2	1	0	1	1	1,372727879786314E+005	2,6394656E+000	2,6390259E+000	1,500841852559127E-003	1,000000000000000E+000	3,8682546E-003	42	3,9607608E-006
2	0	0	1	1	1,375176880169489E+005	2,5415056E+000	2,5410936E+000	-2,918925943346134E-004	1,000000000000000E+000	3,9474363E-003	43	-7,4172641E-007
2	0	0	1	1	1,377625878552673E+005	2,4435456E+000	2,4430978E+000	-1,013466420435257E-003	1,000000000000000E+000	3,7476639E-003	42	-2,4759977E-006
2	0	0	1	1	1,380074877935825E+005	2,3455851E+000	2,3451724E+000	-1,602894791682477E-003	1,000000000000000E+000	3,3881767E-003	42	-3,7590646E-006
2	0	0	1	1	1,382523879319022E+005	2,2476256E+000	2,2472003E+000	-2,213194008932240E-003	1,000000000000000E+000	2,8849053E-003	42	-4,9734899E-006
2	0	0	1	1	1,384972876702184E+005	2,1496654E+000	2,1492453E+000	-2,975714192412542E-003	1,000000000000000E+000	2,2150597E-003	42	-6,3955395E-006
2	0	0	1	1	1,387421878085363E+005	2,0517054E+000	2,0512490E+000	-3,921345149802066E-003	1,000000000000000E+000	1,3366534E-003	42	-8,0436557E-006
2	0	0	1	1	1,389870877468544E+005	1,9537454E+000	1,9533145E+000	-5,323888696203732E-003	1,000000000000000E+000	1,8034040E-004	42	-1,0399229E-005
2	0	0	1	1	1,392292387847397E+005	1,8568850E+000	1,8564641E+000	-7,609709050349800E-003	2,000000000000000E+000	-1,3998060E-003	42	-1,4127152E-005
2	0	0	1	1	1,394741388230589E+005	1,7589248E+000	1,7584410E+000	-1,134099211772768E-002	2,000000000000000E+000	-3,7398797E-003	41	-1,9942465E-005
2	0	0	1	1	1,397190390613768E+005	1,6609650E+000	1,6604632E+000	-1,586297603892728E-002	2,000000000000000E+000	-7,0411982E-003	41	-2,6339889E-005
2	0	0	1	1	1,399639388996933E+005	1,5630049E+000	1,5625252E+000	-4,088537160542394E-002	2,000000000000000E+000	-1,3180624E-002	41	-6,3884421E-005
[...]
2	0	0	1	1	1,419201410057647E+005	1,2194450E+000	1,2188911E+000	-8,762629772276771E-003	2,000000000000000E+000	-2,2253191E-001	41	-1,0680692E-005
2	0	0	1	1	1,421650410440830E+005	1,3174050E+000	1,3168380E+000	-2,278181952250834E-003	2,000000000000000E+000	-2,2379050E-001	42	-2,9999967E-006
2	1	0	1	1	1,424099416823983E+005	1,4153651E+000	1,4147578E+000	2,720839560667182E-003	2,000000000000000E+000	-2,2372994E-001	42	3,8493290E-006
2	1	0	1	1	1,426548417207177E+005	1,5133251E+000	1,5127314E+000	1,151590428029085E-002	2,000000000000000E+000	-2,2213405E-001	41	1,7420471E-005
2	1	0	1	1	1,428997421590351E+005	1,6112852E+000	1,6106101E+000	1,007105973071663E-001	2,000000000000000E+000	-2,1361077E-001	41	1,6220551E-004
2	1	0	1	1	1,431446425973519E+005	1,7092452E+000	1,7085662E+000	5,779599182439501E-001	2,000000000000000E+000	-1,4345750E-001	40	9,8748272E-004
2	1	0	1	1	1,433895429356713E+005	1,8072051E+000	1,8066056E+000	1,043394189024938E-001	2,000000000000000E+000	-2,3802506E-002	40	1,8850017E-004
2	1	0	1	1	1,436346930740257E+005	1,9052652E+000	1,9046928E+000	1,903965185140555E-002	2,000000000000000E+000	-1,4424598E-002	41	3,6264686E-005
2	1	0	1	1	1,438795935123440E+005	2,0032251E+000	2,0026517E+000	1,249868348734835E-002	2,000000000000000E+000	-1,0743906E-002	41	2,5030509E-005
2	1	0	1	1	1,441244942506626E+005	2,1011848E+000	2,1005945E+000	9,084733769527203E-003	2,000000000000000E+000	-8,0689434E-003	41	1,9083342E-005
2	1	0	1	1	1,443693946889779E+005	2,1991448E+000	2,1985767E+000	8,194670704783497E-003	2,000000000000000E+000	-5,8838711E-003	41	1,8016612E-005
2	1	0	1	1	1,446142958272969E+005	2,2971053E+000	2,2965481E+000	7,425252043274294E-003	2,000000000000000E+000	-3,9012448E-003	41	1,7052449E-005
2	1	0	1	1	1,448591961656148E+005	2,3950655E+000	2,3945029E+000	6,736471584862583E-003	2,000000000000000E+000	-2,0925675E-003	41	1,6130500E-005
2	1	0	1	1	1,451040969039307E+005	2,4930253E+000	2,4924881E+000	6,246272431785986E-003	2,000000000000000E+000	-4,5575781E-004	41	1,5568759E-005
2	1	0	1	1	1,453489976422500E+005	2,5909858E+000	2,5904882E+000	6,356270783610257E-003	2,000000000000000E+000	1,1420419E-003	41	1,6465845E-005
2	1	0	1	1	1,455938983805673E+005	2,6889458E+000	2,6884301E+000	6,801848208780943E-003	2,000000000000000E+000	2,8020630E-003	41	1,8286293E-005
2	1	0	1	0	1,458353001183362E+005	2,6144757E+000	2,6140182E+000	6,274660189357849E-004	2,000000000000000E+000	3,4359677E-003	42	1,6402076E-006
2	0	0	1	0	1,460819491569297E+005	2,5158160E+000	2,5153029E+000	-6,195831566958177E-004	2,000000000000000E+000	3,3611150E-003	42	-1,5584393E-006
2	0	0	1	0	1,463268492952450E+005	2,4178560E+000	2,4174054E+000	-1,254568483851975E-003	2,000000000000000E+000	3,0767249E-003	42	-3,0328006E-006
2	0	0	1	0	1,465717491335634E+005	2,3198962E+000	2,3194609E+000	-1,833912769170346E-003	2,000000000000000E+000	2,6478132E-003	42	-4,2536890E-006
2	0	0	1	0	1,468166491718809E+005	2,2219357E+000	2,2214737E+000	-2,502086185388393E-003	2,000000000000000E+000	2,0681710E-003	42	-5,5583187E-006
2	0	0	1	0	1,470615493101976E+005	2,1239758E+000	2,1235046E+000	-3,350051778703522E-003	2,000000000000000E+000	1,3050570E-003	42	-7,1138506E-006
2	0	0	1	0	1,473064489485170E+005	2,0260158E+000	2,0255325E+000	-4,470157232004543E-003	2,000000000000000E+000	3,0653406E-004	42	-9,0544490E-006
2	0	0	1	0	1,475513492868324E+005	1,9280559E+000	1,9276226E+000	-6,262494138607064E-003	2,000000000000000E+000	-1,0367719E-003	42	-1,2071725E-005
2	0	0	0	0	1,476676299050255E+005	1,8815254E+000	1,8810769E+000	-7,538021238855080E-003	2,000000000000000E+000	-1,8573501E-003	42	-1,4179598E-005