Folder: Randles-Sevcik/Dati/201117

File: CV_LTO-CB_10 layer_grafite_cu_05_1mVs_02_CV_C03.mpt
EC-Lab ASCII FILE
Nb header lines : 57

Cyclic Voltammetry

Run on channel : 3 (SN 6807)
User :
Electrode connection : standard
Ewe ctrl range : min = 0,00 V, max = 5,00 V
Ewe,I filtering : 50 kHz
Safety Limits :
	Do not start on E overload
Channel : Grounded
Acquisition started on : 11/17/2020 16:29:06
Saved on :
	File : CV_LTO-CB_10 layer_grafite_cu_05_1mVs_02_CV_C03.mpr
	Directory : C:\Users\labsuperfici\Desktop\Biologic\Users\Prisca Viviani\201117\
	Host : 10.78.33.0
Device : VSP-300 (SN 0638)
Address : USB
EC-Lab for windows v11.31 (software)
Internet server v11.30 (firmware)
Command interpretor v11.31 (firmware)
Electrode material :
Initial state :
Electrolyte :
Comments :
Cable : standard
Reference electrode : SCE Saturated Calomel Electrode (0,241 V)
Electrode surface area : 0,001 cm²
Characteristic mass : 0,001 g
Equivalent Weight : 0,000 g/eq.
Density : 0,000 g/cm3
Cycle Definition : Charge/Discharge alternance
Ei (V)              0,000
vs.                 Eoc
dE/dt               0,500
dE/dt unit          mV/s
E1 (V)              1,000
vs.                 Ref
Step percent        50
N                   10
E range min (V)     0,000
E range max (V)     5,000
I Range             Auto
I Range min         Unset
I Range max         Unset
I Range init        Unset
Bandwidth           8
E2 (V)              2,700
vs.                 Ref
nc cycles           1
Reverse Scan        1
Ef (V)              0,000
vs.                 Eoc

mode	ox/red	error	control changes	counter inc.	time/s	control/V	Ewe/V	<I>/mA	cycle number	(Q-Qo)/C	I Range	P/W
2	0	0	1	0	5,208252683060069E+003	2,5277619E+000	2,5273371E+000	-1,800074125640094E-003	1,000000000000000E+000	0,0000000E+000	42	-4,5493939E-006
2	0	0	1	0	5,405272080674738E+003	2,4292514E+000	2,4288063E+000	-3,386028220896120E-003	1,000000000000000E+000	-5,9325143E-004	42	-8,2240067E-006
2	0	0	1	0	5,603191278278478E+003	2,3302915E+000	2,3298533E+000	-4,811747774520730E-003	1,000000000000000E+000	-1,4219014E-003	42	-1,1210666E-005
2	0	0	1	0	5,801110575882252E+003	2,2313318E+000	2,2309453E+000	-7,669866848776741E-003	1,000000000000000E+000	-2,6534030E-003	42	-1,7111053E-005
2	0	0	1	0	5,999029873485997E+003	2,1323724E+000	2,1319134E+000	-1,286789537410474E-002	1,000000000000000E+000	-4,6784650E-003	41	-2,7433240E-005
2	0	0	1	0	6,196949171089735E+003	2,0334125E+000	2,0329459E+000	-2,112845521284537E-002	1,000000000000000E+000	-8,0134459E-003	41	-4,2953005E-005
2	0	0	1	0	6,394868468693501E+003	1,9344534E+000	1,9339775E+000	-3,487822496658749E-002	1,000000000000000E+000	-1,3463915E-002	41	-6,7453700E-005
2	0	0	1	0	6,592787566297236E+003	1,8354938E+000	1,8350530E+000	-5,958274570027666E-002	1,000000000000000E+000	-2,2610225E-002	41	-1,0933750E-004
2	0	0	1	0	6,790706863901010E+003	1,7365340E+000	1,7360474E+000	-1,027661746407833E-001	1,000000000000000E+000	-3,8346644E-002	40	-1,7840695E-004
2	0	0	1	0	6,988626161504741E+003	1,6375743E+000	1,6370906E+000	-1,628208655082903E-001	1,000000000000000E+000	-6,4453438E-002	40	-2,6655250E-004
2	0	0	1	0	7,186545459108500E+003	1,5386146E+000	1,5381421E+000	-2,587701163172476E-001	1,000000000000000E+000	-1,0490602E-001	40	-3,9802521E-004
2	0	0	1	0	7,384464556712279E+003	1,4396549E+000	1,4392016E+000	-5,091050348338202E-001	1,000000000000000E+000	-1,7816280E-001	40	-7,3270476E-004
2	0	0	1	0	7,582383854316024E+003	1,3406954E+000	1,3402810E+000	-6,020223099447293E-001	1,000000000000000E+000	-2,9376286E-001	40	-8,0687908E-004
2	0	0	1	0	7,780303051919778E+003	1,2417358E+000	1,2412621E+000	-5,002251868887403E-001	1,000000000000000E+000	-4,0354005E-001	40	-6,2091055E-004
2	0	0	1	0	7,978222349523538E+003	1,1427761E+000	1,1422961E+000	-4,069478067549230E-001	1,000000000000000E+000	-4,9284753E-001	40	-4,6485488E-004
2	0	0	1	0	8,176141447127287E+003	1,0438166E+000	1,0432975E+000	-3,552120961904852E-001	1,000000000000000E+000	-5,6763625E-001	40	-3,7059191E-004
2	0	0	1	0	8,370862644769775E+003	1,0535126E+000	1,0530421E+000	-1,905974504242058E-001	1,000000000000000E+000	-6,2548846E-001	40	-2,0070713E-004
2	0	0	1	0	8,568782142373479E+003	1,1524723E+000	1,1519221E+000	-8,617907321444629E-002	1,000000000000000E+000	-6,5115315E-001	40	-9,9271580E-005
2	0	0	1	0	8,766701639977284E+003	1,2514318E+000	1,2509152E+000	-3,920064919392607E-002	1,000000000000000E+000	-6,6307116E-001	41	-4,9036687E-005
2	0	0	1	0	8,964621037580982E+003	1,3503913E+000	1,3498946E+000	-9,157736211968526E-003	1,000000000000000E+000	-6,6768372E-001	41	-1,2361979E-005
2	1	0	1	0	9,162740535182355E+003	1,4494512E+000	1,4489144E+000	1,875501923453926E-002	1,000000000000000E+000	-6,6679877E-001	41	2,7174417E-005
2	1	0	1	0	9,360659932786075E+003	1,5484104E+000	1,5478173E+000	5,990358346610225E-002	1,000000000000000E+000	-6,5933758E-001	41	9,2719805E-005
2	1	0	1	0	9,558579330389854E+003	1,6473706E+000	1,6467980E+000	2,145595643300351E-001	1,000000000000000E+000	-6,3662755E-001	40	3,5333628E-004
2	1	0	1	0	9,756498827993564E+003	1,7463299E+000	1,7457291E+000	4,785879724565909E-001	1,000000000000000E+000	-5,6728047E-001	40	8,3548494E-004
2	1	0	1	0	9,954418325597362E+003	1,8452896E+000	1,8446685E+000	6,114664381204236E-001	1,000000000000000E+000	-4,5543805E-001	40	1,1279528E-003
2	1	0	1	0	1,015233782320107E+004	1,9442494E+000	1,9436609E+000	4,939773230326665E-001	1,000000000000000E+000	-3,4269357E-001	40	9,6012437E-004
2	1	0	1	0	1,035025752080482E+004	2,0432086E+000	2,0426540E+000	3,038928051732039E-001	1,000000000000000E+000	-2,6457742E-001	40	6,2074786E-004
2	1	0	1	0	1,054817721840861E+004	2,1421685E+000	2,1416299E+000	1,865475229828695E-001	1,000000000000000E+000	-2,1721026E-001	40	3,9951576E-004
2	1	0	1	0	1,074609681601234E+004	2,2411277E+000	2,2405987E+000	1,185798735877507E-001	1,000000000000000E+000	-1,8748541E-001	40	2,6568992E-004
2	1	0	1	0	1,094401651361606E+004	2,3400879E+000	2,3396082E+000	7,561895151746922E-002	1,000000000000000E+000	-1,6861440E-001	40	1,7691872E-004
2	1	0	1	0	1,114193621121984E+004	2,4390471E+000	2,4385393E+000	5,225849703263619E-002	1,000000000000000E+000	-1,5619437E-001	40	1,2743440E-004
2	1	0	1	0	1,134005580882117E+004	2,5381069E+000	2,5375621E+000	4,038576411241220E-002	1,000000000000000E+000	-1,4711833E-001	41	1,0248138E-004
2	1	0	1	0	1,153797560642488E+004	2,6370664E+000	2,6365302E+000	3,422165312237103E-002	1,000000000000000E+000	-1,3977745E-001	41	9,0226422E-005
2	1	0	1	1	1,173289630406495E+004	2,6654544E+000	2,6649373E+000	1,692373458651519E-002	1,000000000000000E+000	-1,3416514E-001	41	4,5100689E-005
2	1	0	1	1	1,193081560166868E+004	2,5664952E+000	2,5659809E+000	6,267527810702056E-003	1,000000000000000E+000	-1,3210329E-001	41	1,6082357E-005
2	1	0	1	1	1,212553629931118E+004	2,4691348E+000	2,4686136E+000	2,098509585718973E-003	2,000000000000000E+000	-1,3134935E-001	42	5,1804095E-006
2	0	0	1	1	1,232345539691491E+004	2,3701751E+000	2,3696699E+000	-8,498083194008613E-004	2,000000000000000E+000	-1,3124850E-001	42	-2,0137652E-006
2	0	0	1	1	1,252137459451868E+004	2,2712154E+000	2,2707584E+000	-3,817701360018438E-003	2,000000000000000E+000	-1,3171828E-001	42	-8,6690770E-006
2	0	0	1	1	1,271929389212243E+004	2,1722562E+000	2,1718428E+000	-7,835439646827702E-003	2,000000000000000E+000	-1,3286784E-001	42	-1,7017343E-005
2	0	0	1	1	1,291721318972617E+004	2,0732965E+000	2,0728056E+000	-1,372777812311354E-002	2,000000000000000E+000	-1,3498588E-001	41	-2,8455015E-005
[...]
2	0	0	1	1	1,410472857534872E+004	1,4795388E+000	1,4790336E+000	-2,992760983633467E-001	2,000000000000000E+000	-2,4127427E-001	40	-4,4263940E-004
2	0	0	1	1	1,430264787295251E+004	1,3805790E+000	1,3801214E+000	-4,458310770399319E-001	2,000000000000000E+000	-3,1681740E-001	40	-6,1530096E-004
2	0	0	1	1	1,450056707055622E+004	1,2816195E+000	1,2811333E+000	-4,662943464832698E-001	2,000000000000000E+000	-4,0939850E-001	40	-5,9738522E-004
2	0	0	1	1	1,469848626815997E+004	1,1826599E+000	1,1821649E+000	-3,992822696965939E-001	2,000000000000000E+000	-4,9561617E-001	40	-4,7201748E-004
2	0	0	1	1	1,489640546576373E+004	1,0837002E+000	1,0831742E+000	-3,330087471388277E-001	2,000000000000000E+000	-5,6768209E-001	40	-3,6070650E-004
2	0	0	1	1	1,509092686340861E+004	1,0135289E+000	1,0130433E+000	-2,554724232052007E-001	2,000000000000000E+000	-6,2817591E-001	40	-2,5880462E-004
2	0	0	1	1	1,528884616101242E+004	1,1124886E+000	1,1119595E+000	-1,097625783875478E-001	2,000000000000000E+000	-6,6149622E-001	40	-1,2205154E-004
2	0	0	1	1	1,548676555861613E+004	1,2114482E+000	1,2108895E+000	-5,218331085760136E-002	2,000000000000000E+000	-6,7683971E-001	40	-6,3188221E-005
2	0	0	1	1	1,568468505621987E+004	1,3104079E+000	1,3098663E+000	-1,930924122032220E-002	2,000000000000000E+000	-6,8366700E-001	41	-2,5292524E-005
2	1	0	1	1	1,588260445382362E+004	1,4093673E+000	1,4087501E+000	6,265363450866840E-003	2,000000000000000E+000	-6,8491387E-001	42	8,8263314E-006
2	1	0	1	1	1,608052405142738E+004	1,5083270E+000	1,5076995E+000	3,746268260327446E-002	2,000000000000000E+000	-6,8076074E-001	41	5,6482466E-005
2	1	0	1	1	1,627844344903112E+004	1,6072868E+000	1,6066211E+000	9,986606854831570E-002	2,000000000000000E+000	-6,6840899E-001	41	1,6044694E-004
2	1	0	1	1	1,647636294663491E+004	1,7062464E+000	1,7056201E+000	3,166545408331194E-001	2,000000000000000E+000	-6,2834293E-001	40	5,4009235E-004
2	1	0	1	1	1,667428244423860E+004	1,8052061E+000	1,8045782E+000	5,228553564649072E-001	2,000000000000000E+000	-5,4387796E-001	40	9,4353338E-004
2	1	0	1	1	1,687220194184233E+004	1,9041656E+000	1,9035089E+000	5,547198220754819E-001	2,000000000000000E+000	-4,3324518E-001	40	1,0559141E-003
2	1	0	1	1	1,707012163944612E+004	2,0031250E+000	2,0025313E+000	3,990014842389291E-001	2,000000000000000E+000	-3,3713031E-001	40	7,9901295E-004
2	1	0	1	1	1,726804113704988E+004	2,1020849E+000	2,1015007E+000	2,379335255633701E-001	2,000000000000000E+000	-2,7527320E-001	40	5,0001749E-004
2	1	0	1	1	1,746596063465366E+004	2,2010446E+000	2,2004926E+000	1,502545162725701E-001	2,000000000000000E+000	-2,3778510E-001	40	3,3063395E-004
2	1	0	1	1	1,766388033225742E+004	2,3000038E+000	2,2994971E+000	9,933778497582901E-002	2,000000000000000E+000	-2,1343973E-001	40	2,2842696E-004
2	1	0	1	1	1,786180012986116E+004	2,3989637E+000	2,3984530E+000	6,488138517334102E-002	2,000000000000000E+000	-1,9741286E-001	40	1,5561495E-004
2	1	0	1	1	1,805971962746489E+004	2,4979231E+000	2,4973831E+000	4,633523772019599E-002	2,000000000000000E+000	-1,8662499E-001	41	1,1571684E-004
2	1	0	1	1	1,825763942506863E+004	2,5968828E+000	2,5963435E+000	3,754077764675562E-002	2,000000000000000E+000	-1,7841591E-001	41	9,7468757E-005
2	1	0	1	1	1,845555922267237E+004	2,6958423E+000	2,6953142E+000	3,270461699094984E-002	2,000000000000000E+000	-1,7146587E-001	41	8,8149216E-005
2	1	0	1	0	1,865087962030759E+004	2,6064785E+000	2,6059666E+000	1,010472430958066E-002	2,000000000000000E+000	-1,6802888E-001	41	2,6332575E-005
2	1	0	0	0	1,880821531840271E+004	2,5277619E+000	2,5272150E+000	4,819440502367295E-003	2,000000000000000E+000	-1,6690509E-001	42	1,2179762E-005

File: CV_LTO-CB_10 layer_grafite_cu_05_1mVs_03_CV_C03.mpt
EC-Lab ASCII FILE
Nb header lines : 57

Cyclic Voltammetry

Run on channel : 3 (SN 6807)
User :
Electrode connection : standard
Ewe ctrl range : min = 0,00 V, max = 5,00 V
Ewe,I filtering : 50 kHz
Safety Limits :
	Do not start on E overload
Channel : Grounded
Acquisition started on : 11/17/2020 16:29:06
Saved on :
	File : CV_LTO-CB_10 layer_grafite_cu_05_1mVs_03_CV_C03.mpr
	Directory : C:\Users\labsuperfici\Desktop\Biologic\Users\Prisca Viviani\201117\
	Host : 10.78.33.0
Device : VSP-300 (SN 0638)
Address : USB
EC-Lab for windows v11.31 (software)
Internet server v11.30 (firmware)
Command interpretor v11.31 (firmware)
Electrode material :
Initial state :
Electrolyte :
Comments :
Cable : standard
Reference electrode : SCE Saturated Calomel Electrode (0,241 V)
Electrode surface area : 0,001 cm²
Characteristic mass : 0,001 g
Equivalent Weight : 0,000 g/eq.
Density : 0,000 g/cm3
Cycle Definition : Charge/Discharge alternance
Ei (V)              0,000
vs.                 Eoc
dE/dt               0,600
dE/dt unit          mV/s
E1 (V)              1,000
vs.                 Ref
Step percent        50
N                   10
E range min (V)     0,000
E range max (V)     5,000
I Range             Auto
I Range min         Unset
I Range max         Unset
I Range init        Unset
Bandwidth           8
E2 (V)              2,700
vs.                 Ref
nc cycles           1
Reverse Scan        1
Ef (V)              0,000
vs.                 Eoc

mode	ox/red	error	control changes	counter inc.	time/s	control/V	Ewe/V	<I>/mA	cycle number	(Q-Qo)/C	I Range	P/W
2	1	0	0	0	1,880848191839946E+004	2,5277619E+000	2,5271537E+000	5,604332778602839E-003	1,000000000000000E+000	0,0000000E+000	42	1,4163011E-005
2	1	0	1	0	1,897266471641161E+004	2,4292512E+000	2,4287274E+000	7,554591084710724E-004	1,000000000000000E+000	3,9757747E-004	42	1,8348043E-006
2	0	0	1	0	1,913759751441480E+004	2,3302917E+000	2,3298044E+000	-2,400938169121717E-003	1,000000000000000E+000	2,4728262E-004	42	-5,5937162E-006
2	0	0	1	0	1,930253031241801E+004	2,2313321E+000	2,2308905E+000	-6,167143539408376E-003	1,000000000000000E+000	-4,6138625E-004	42	-1,3758222E-005
2	0	0	1	0	1,946746311042106E+004	2,1323721E+000	2,1318617E+000	-1,144975006155075E-002	1,000000000000000E+000	-1,9031242E-003	41	-2,4409284E-005
2	0	0	1	0	1,963239590842417E+004	2,0334127E+000	2,0329325E+000	-1,923086293034899E-002	1,000000000000000E+000	-4,4041448E-003	41	-3,9095048E-005
2	0	0	1	0	1,979732870642724E+004	1,9344532E+000	1,9339597E+000	-3,135608969337433E-002	1,000000000000000E+000	-8,5182171E-003	41	-6,0641414E-005
2	0	0	1	0	1,996226140443044E+004	1,8354937E+000	1,8350289E+000	-5,115590124563718E-002	1,000000000000000E+000	-1,5201864E-002	41	-9,3872557E-005
2	0	0	1	0	2,012719420243357E+004	1,7365339E+000	1,7360834E+000	-8,412912957923635E-002	1,000000000000000E+000	-2,6159579E-002	41	-1,4605519E-004
2	0	0	1	0	2,029212700043670E+004	1,6375742E+000	1,6370277E+000	-1,335162651811724E-001	1,000000000000000E+000	-4,3902803E-002	40	-2,1856982E-004
2	0	0	1	0	2,045705979843991E+004	1,5386146E+000	1,5380872E+000	-2,088225707789912E-001	1,000000000000000E+000	-7,1551986E-002	40	-3,2118734E-004
2	0	0	0	0	2,062199249644295E+004	1,4396551E+000	1,4391377E+000	-3,526969592298301E-001	1,000000000000000E+000	-1,1675595E-001	40	-5,0757948E-004
2	0	0	0	0	2,078692529444606E+004	1,3406954E+000	1,3402027E+000	-4,885040842180821E-001	1,000000000000000E+000	-1,8745875E-001	40	-6,5469451E-004
2	0	0	1	0	2,095185799244919E+004	1,2417357E+000	1,2412277E+000	-5,067010024367393E-001	1,000000000000000E+000	-2,7120379E-001	40	-6,2893133E-004
2	0	0	1	0	2,111679079045232E+004	1,1427761E+000	1,1422727E+000	-4,449679070713604E-001	1,000000000000000E+000	-3,5018420E-001	40	-5,0827471E-004
2	0	0	1	0	2,128172348845541E+004	1,0438164E+000	1,0432913E+000	-3,773296415223224E-001	1,000000000000000E+000	-4,1778225E-001	40	-3,9366476E-004
2	0	0	1	0	2,144399148649082E+004	1,0535126E+000	1,0529914E+000	-2,129667955144350E-001	1,000000000000000E+000	-4,6877918E-001	40	-2,2425220E-004
2	0	0	0	0	2,160892428449399E+004	1,1524723E+000	1,1519037E+000	-1,045751400811870E-001	1,000000000000000E+000	-4,9365777E-001	40	-1,2046049E-004
2	0	0	1	0	2,177385728249709E+004	1,2514321E+000	1,2508626E+000	-5,150362063367681E-002	1,000000000000000E+000	-5,0610429E-001	40	-6,4423955E-005
2	0	0	1	0	2,193879018050031E+004	1,3503915E+000	1,3498714E+000	-1,697641753645837E-002	1,000000000000000E+000	-5,1158684E-001	41	-2,2915980E-005
2	1	0	1	0	2,210372307850333E+004	1,4493513E+000	1,4487907E+000	1,371333969083985E-002	1,000000000000000E+000	-5,1188290E-001	41	1,9867759E-005
2	1	0	0	0	2,226865587650647E+004	1,5483108E+000	1,5476584E+000	5,450679883155152E-002	1,000000000000000E+000	-5,0647312E-001	41	8,4357911E-005
2	1	0	1	0	2,243358877450961E+004	1,6472703E+000	1,6467026E+000	1,663285212851975E-001	1,000000000000000E+000	-4,9063015E-001	40	2,7389362E-004
2	1	0	1	0	2,259852187251271E+004	1,7462300E+000	1,7455778E+000	3,855178717469747E-001	1,000000000000000E+000	-4,4525224E-001	40	6,7295146E-004
2	1	0	1	0	2,276345477051585E+004	1,8451893E+000	1,8445576E+000	5,666381657625101E-001	1,000000000000000E+000	-3,6535695E-001	40	1,0451968E-003
2	1	0	1	0	2,292838766851893E+004	1,9441494E+000	1,9435000E+000	5,921649409391363E-001	1,000000000000000E+000	-2,6701459E-001	40	1,1508726E-003
2	1	0	1	0	2,309332066652211E+004	2,0431089E+000	2,0425024E+000	4,385543536640379E-001	1,000000000000000E+000	-1,8026143E-001	40	8,9574832E-004
2	1	0	1	0	2,325825356452522E+004	2,1420686E+000	2,1414654E+000	2,653330235760551E-001	1,000000000000000E+000	-1,2322199E-001	40	5,6820147E-004
2	1	0	1	0	2,342318676252832E+004	2,2410281E+000	2,2404730E+000	1,728458527812218E-001	1,000000000000000E+000	-8,7978445E-002	40	3,8725647E-004
2	1	0	1	0	2,358811976053147E+004	2,3399875E+000	2,3394659E+000	1,199821373048209E-001	1,000000000000000E+000	-6,4090982E-002	40	2,8069410E-004
2	1	0	1	0	2,375305295853459E+004	2,4389472E+000	2,4384410E+000	7,946940733133401E-002	1,000000000000000E+000	-4,7761053E-002	40	1,9378147E-004
2	1	0	1	0	2,391798615653771E+004	2,5379069E+000	2,5373950E+000	5,592527517893842E-002	1,000000000000000E+000	-3,6833737E-002	40	1,4190451E-004
2	1	0	1	0	2,408308545453881E+004	2,6369665E+000	2,6364198E+000	4,540508926966280E-002	1,000000000000000E+000	-2,8569376E-002	41	1,1970688E-004
2	1	0	1	1	2,424568645257014E+004	2,6654551E+000	2,6649437E+000	2,415983088322271E-002	1,000000000000000E+000	-2,2308644E-002	41	6,4384592E-005
2	1	0	1	1	2,441061925057331E+004	2,5664957E+000	2,5659513E+000	1,009550486775453E-002	1,000000000000000E+000	-1,9713201E-002	41	2,5904574E-005
2	1	0	1	1	2,457288654860870E+004	2,4691348E+000	2,4685833E+000	4,277455106395312E-003	2,000000000000000E+000	-1,8609347E-002	42	1,0559254E-005
2	1	0	1	1	2,473781914661184E+004	2,3701754E+000	2,3696179E+000	3,269208168788082E-004	2,000000000000000E+000	-1,8252289E-002	43	7,7467746E-007
2	0	0	1	1	2,490275194461496E+004	2,2712157E+000	2,2707200E+000	-3,531622342661092E-003	2,000000000000000E+000	-1,8520854E-002	42	-8,0193258E-006
2	0	0	1	1	2,506768484261807E+004	2,1722562E+000	2,1718266E+000	-8,351300215118929E-003	2,000000000000000E+000	-1,9494215E-002	42	-1,8137576E-005
2	0	0	1	1	2,523261764062123E+004	2,0732965E+000	2,0728023E+000	-1,518384425364216E-002	2,000000000000000E+000	-2,1416150E-002	41	-3,1473108E-005
[...]
2	0	0	1	1	2,622221422863996E+004	1,4795388E+000	1,4790008E+000	-2,695143213445879E-001	2,000000000000000E+000	-1,1039522E-001	40	-3,9861191E-004
2	0	0	1	1	2,638714702664310E+004	1,3805791E+000	1,3800946E+000	-4,336541382377757E-001	2,000000000000000E+000	-1,6846727E-001	40	-5,9848378E-004
2	0	0	1	1	2,655207972464623E+004	1,2816194E+000	1,2811266E+000	-5,136718630671169E-001	2,000000000000000E+000	-2,4850520E-001	40	-6,5807870E-004
2	0	0	1	1	2,671701252264937E+004	1,1826599E+000	1,1821812E+000	-4,788210210492281E-001	2,000000000000000E+000	-3,3139756E-001	40	-5,6605320E-004
2	0	0	1	1	2,688194522065249E+004	1,0837002E+000	1,0831949E+000	-4,071154175743352E-001	2,000000000000000E+000	-4,0455359E-001	40	-4,4098531E-004
2	0	0	1	1	2,704404661868990E+004	1,0135289E+000	1,0130185E+000	-3,034390253609454E-001	2,000000000000000E+000	-4,6500206E-001	40	-3,0738933E-004
2	0	0	1	1	2,720897931669303E+004	1,1124885E+000	1,1119446E+000	-1,383638658708075E-001	2,000000000000000E+000	-4,9888527E-001	40	-1,5385295E-004
2	0	0	0	1	2,737391221469615E+004	1,2114483E+000	1,2108920E+000	-6,999543356533994E-002	2,000000000000000E+000	-5,1542890E-001	40	-8,4756910E-005
2	0	0	0	1	2,753884501269925E+004	1,3104079E+000	1,3098918E+000	-2,997530293923725E-002	2,000000000000000E+000	-5,2343440E-001	41	-3,9264403E-005
2	1	0	1	1	2,770377791070240E+004	1,4093674E+000	1,4087474E+000	5,454336597959532E-004	2,000000000000000E+000	-5,2579916E-001	43	7,6837824E-007
2	1	0	1	1	2,786871090870553E+004	1,5083269E+000	1,5077173E+000	3,545150970647065E-002	2,000000000000000E+000	-5,2295512E-001	41	5,3450854E-005
2	1	0	0	1	2,803364380670863E+004	1,6072868E+000	1,6066219E+000	9,562801962729095E-002	2,000000000000000E+000	-5,1288098E-001	41	1,5363807E-004
2	1	0	1	1	2,819857680471177E+004	1,7062465E+000	1,7056663E+000	2,862364379106264E-001	2,000000000000000E+000	-4,8264137E-001	40	4,8822386E-004
2	1	0	1	1	2,836350960271490E+004	1,8052058E+000	1,8045940E+000	4,915985105138279E-001	2,000000000000000E+000	-4,1791266E-001	40	8,8713574E-004
2	1	0	1	1	2,852844260071800E+004	1,9041657E+000	1,9035400E+000	5,963283377293660E-001	2,000000000000000E+000	-3,2601810E-001	40	1,1351348E-003
2	1	0	1	1	2,869337569872115E+004	2,0031250E+000	2,0025153E+000	5,254974313912211E-001	2,000000000000000E+000	-2,3105824E-001	40	1,0523166E-003
2	1	0	1	1	2,885830869672426E+004	2,1020849E+000	2,1014888E+000	3,443772453901963E-001	2,000000000000000E+000	-1,5901069E-001	40	7,2370493E-004
2	1	0	1	1	2,902324169472739E+004	2,2010446E+000	2,2004941E+000	2,138946458429327E-001	2,000000000000000E+000	-1,1418008E-001	40	4,7067390E-004
2	1	0	1	1	2,918817489273060E+004	2,3000040E+000	2,2994807E+000	1,448905010258158E-001	2,000000000000000E+000	-8,4982097E-002	40	3,3317291E-004
2	1	0	1	1	2,935310769073362E+004	2,3989637E+000	2,3984635E+000	9,259209417605740E-002	2,000000000000000E+000	-6,5604299E-002	40	2,2207876E-004
2	1	0	1	1	2,951804068873677E+004	2,4979231E+000	2,4974079E+000	6,250542198139653E-002	2,000000000000000E+000	-5,3107008E-002	40	1,5610154E-004
2	1	0	1	1	2,968314058673786E+004	2,5969830E+000	2,5964074E+000	4,836116132779156E-002	2,000000000000000E+000	-4,4095121E-002	41	1,2556528E-004
2	1	0	1	1	2,984807358474104E+004	2,6959424E+000	2,6954188E+000	4,113939686395329E-002	2,000000000000000E+000	-3,6740601E-002	41	1,1088791E-004
2	1	0	1	0	3,001067428277238E+004	2,6064789E+000	2,6059484E+000	1,409798822952696E-002	2,000000000000000E+000	-3,2947205E-002	41	3,6738631E-005
2	1	0	1	0	3,014178738118496E+004	2,5277619E+000	2,5272760E+000	7,308309023546126E-003	2,000000000000000E+000	-3,1593658E-002	41	1,8470115E-005