Folder: Randles-Sevcik/Dati/201104_LTO-CNT (part 2)

File: CV_LTO_Al_grafite_01_1mVs_07_CV_C03.mpt
EC-Lab ASCII FILE
Nb header lines : 57

Cyclic Voltammetry

Run on channel : 3 (SN 6807)
User :
Electrode connection : standard
Ewe ctrl range : min = 0,00 V, max = 5,00 V
Ewe,I filtering : 50 kHz
Safety Limits :
	Do not start on E overload
Channel : Grounded
Acquisition started on : 11/04/2020 18:19:46
Saved on :
	File : CV_LTO_Al_grafite_01_1mVs_07_CV_C03.mpr
	Directory : C:\Users\labsuperfici\Desktop\Biologic\Users\Prisca Viviani\201104\
	Host : 10.78.33.0
Device : VSP-300 (SN 0638)
Address : USB
EC-Lab for windows v11.31 (software)
Internet server v11.30 (firmware)
Command interpretor v11.31 (firmware)
Electrode material :
Initial state :
Electrolyte :
Comments :
Cable : standard
Reference electrode : SCE Saturated Calomel Electrode (0,241 V)
Electrode surface area : 0,001 cm²
Characteristic mass : 0,001 g
Equivalent Weight : 0,000 g/eq.
Density : 0,000 g/cm3
Cycle Definition : Charge/Discharge alternance
Ei (V)              0,000
vs.                 Eoc
dE/dt               0,600
dE/dt unit          mV/s
E1 (V)              1,000
vs.                 Ref
Step percent        50
N                   10
E range min (V)     0,000
E range max (V)     5,000
I Range             Auto
I Range min         Unset
I Range max         Unset
I Range init        Unset
Bandwidth           8
E2 (V)              2,700
vs.                 Ref
nc cycles           1
Reverse Scan        1
Ef (V)              0,000
vs.                 Eoc

mode	ox/red	error	control changes	counter inc.	time/s	control/V	Ewe/V	<I>/mA	cycle number	(Q-Qo)/C	I Range	P/W
2	1	0	0	0	1,619650951420323E+005	2,7417748E+000	2,7411690E+000	1,427679229527712E-002	1,000000000000000E+000	0,0000000E+000	41	3,9135099E-005
2	1	0	1	0	1,621309443679815E+005	2,6422641E+000	2,6417282E+000	5,093056430010513E-005	1,000000000000000E+000	5,3486187E-004	43	1,3454471E-007
2	0	0	1	0	1,622975430940497E+005	2,5423050E+000	2,5418246E+000	-2,331124344835060E-003	1,000000000000000E+000	3,0689550E-004	42	-5,9253093E-006
2	0	0	1	0	1,624641416201140E+005	2,4423456E+000	2,4418771E+000	-3,753541409178024E-003	1,000000000000000E+000	-2,1972982E-004	42	-9,1656866E-006
2	0	0	1	0	1,626307406461802E+005	2,3423867E+000	2,3419352E+000	-4,851702751952625E-003	1,000000000000000E+000	-9,4757555E-004	42	-1,1362374E-005
2	0	0	1	0	1,627973392722486E+005	2,2424276E+000	2,2419524E+000	-6,260063694080220E-003	1,000000000000000E+000	-1,8752273E-003	42	-1,4034765E-005
2	0	0	1	0	1,629639381983131E+005	2,1424680E+000	2,1420267E+000	-8,582996468783827E-003	1,000000000000000E+000	-3,1058383E-003	42	-1,8385008E-005
2	0	0	1	0	1,631305367243788E+005	2,0425091E+000	2,0419781E+000	-1,239023290327251E-002	1,000000000000000E+000	-4,8411605E-003	41	-2,5300584E-005
2	0	0	0	0	1,632971357504474E+005	1,9425498E+000	1,9420066E+000	-1,799797826938542E-002	1,000000000000000E+000	-7,3526930E-003	41	-3,4952191E-005
2	0	0	1	0	1,634637345765122E+005	1,8425907E+000	1,8420556E+000	-2,583101761332938E-002	1,000000000000000E+000	-1,0981106E-002	41	-4,7582169E-005
2	0	0	1	0	1,636303333025780E+005	1,7426314E+000	1,7421153E+000	-3,609768285539929E-002	1,000000000000000E+000	-1,6107595E-002	41	-6,2886327E-005
2	0	0	1	0	1,637969321286464E+005	1,6426721E+000	1,6421429E+000	-5,098954163506231E-002	1,000000000000000E+000	-2,3259554E-002	41	-8,3732113E-005
2	0	0	1	0	1,639635308547113E+005	1,5427129E+000	1,5422484E+000	-8,589074172665356E-002	1,000000000000000E+000	-3,4167744E-002	41	-1,3246486E-004
2	0	0	1	0	1,641301296807765E+005	1,4427538E+000	1,4422286E+000	-1,683621347237358E-001	1,000000000000000E+000	-5,5291638E-002	40	-2,4281668E-004
2	0	0	1	0	1,642967284068451E+005	1,3427944E+000	1,3422205E+000	-1,708006591682343E-001	1,000000000000000E+000	-8,5178219E-002	40	-2,2925215E-004
2	0	0	1	0	1,644633271329104E+005	1,2428354E+000	1,2422520E+000	-1,286413944971507E-001	1,000000000000000E+000	-1,0991610E-001	40	-1,5980503E-004
2	0	0	0	0	1,646299259589757E+005	1,1428761E+000	1,1422846E+000	-1,042024815042968E-001	1,000000000000000E+000	-1,2910172E-001	40	-1,1902890E-004
2	0	0	1	0	1,647965246850438E+005	1,0429169E+000	1,0423280E+000	-9,330829633648152E-002	1,000000000000000E+000	-1,4539889E-001	40	-9,7257849E-005
2	0	0	1	0	1,649606251107183E+005	1,0555117E+000	1,0549641E+000	-2,702818505573401E-002	1,000000000000000E+000	-1,5671773E-001	41	-2,8513765E-005
2	1	0	1	0	1,651272239367841E+005	1,1554710E+000	1,1548766E+000	2,384707728391486E-003	1,000000000000000E+000	-1,5824167E-001	42	2,7540432E-006
2	1	0	0	0	1,652938228628524E+005	1,2554302E+000	1,2547952E+000	1,304591151403854E-002	1,000000000000000E+000	-1,5683962E-001	41	1,6369948E-005
2	1	0	1	0	1,654604218889174E+005	1,3553895E+000	1,3547512E+000	1,956435300550127E-002	1,000000000000000E+000	-1,5408699E-001	41	2,6504831E-005
2	1	0	1	0	1,656270207149829E+005	1,4553486E+000	1,4547361E+000	2,569178881270028E-002	1,000000000000000E+000	-1,5031911E-001	41	3,7374772E-005
2	1	0	1	0	1,657936196410516E+005	1,5553076E+000	1,5546910E+000	3,492921505111751E-002	1,000000000000000E+000	-1,4535645E-001	41	5,4304135E-005
2	1	0	1	0	1,659602184671165E+005	1,6552671E+000	1,6546938E+000	1,205579352886226E-001	1,000000000000000E+000	-1,3449560E-001	40	1,9948647E-004
2	1	0	1	0	1,661268175931820E+005	1,7552264E+000	1,7546514E+000	1,977430002560645E-001	1,000000000000000E+000	-1,0662140E-001	40	3,4697005E-004
2	1	0	1	0	1,662934165192507E+005	1,8551853E+000	1,8545951E+000	1,711629056257316E-001	1,000000000000000E+000	-7,4698433E-002	40	3,1743789E-004
2	1	0	1	0	1,664600155453156E+005	1,9551446E+000	1,9545976E+000	1,157908066753979E-001	1,000000000000000E+000	-5,0886121E-002	40	2,2632444E-004
2	1	0	1	0	1,666266144713811E+005	2,0551038E+000	2,0545523E+000	7,447905780382735E-002	1,000000000000000E+000	-3,5265323E-002	40	1,5302112E-004
2	1	0	1	0	1,667933802974736E+005	2,1551628E+000	2,1545491E+000	4,832136935418019E-002	1,000000000000000E+000	-2,5191013E-002	41	1,0411076E-004
2	1	0	1	0	1,669599791235421E+005	2,2551222E+000	2,2545574E+000	3,227737818781573E-002	1,000000000000000E+000	-1,8583043E-002	41	7,2771203E-005
2	1	0	1	0	1,671265783496071E+005	2,3550816E+000	2,3545182E+000	2,314860785899381E-002	1,000000000000000E+000	-1,4033951E-002	41	5,4503817E-005
2	1	0	1	0	1,672931774756731E+005	2,4550407E+000	2,4544930E+000	1,866265021129166E-002	1,000000000000000E+000	-1,0590033E-002	41	4,5807345E-005
2	1	0	1	0	1,674597766017416E+005	2,5549998E+000	2,5544441E+000	1,654814986207603E-002	1,000000000000000E+000	-7,6593757E-003	41	4,2271324E-005
2	1	0	1	0	1,676263758278062E+005	2,6549592E+000	2,6544533E+000	1,511976835187578E-002	1,000000000000000E+000	-5,0331778E-003	41	4,0134717E-005
2	1	0	1	1	1,677906424535075E+005	2,6464627E+000	2,6459157E+000	2,994493879756227E-003	2,000000000000000E+000	-3,3598922E-003	42	7,9231786E-006
2	0	0	1	1	1,679572411795743E+005	2,5465035E+000	2,5459938E+000	-1,194053074124592E-003	2,000000000000000E+000	-3,2811698E-003	42	-3,0400518E-006
2	0	0	1	1	1,681238399056422E+005	2,4465442E+000	2,4460309E+000	-3,120373123170928E-003	2,000000000000000E+000	-3,6647273E-003	42	-7,6325286E-006
2	0	0	1	1	1,682904387317066E+005	2,3465848E+000	2,3460915E+000	-4,390507559839781E-003	2,000000000000000E+000	-4,3022879E-003	42	-1,0300532E-005
2	0	0	1	1	1,684570375577728E+005	2,2466257E+000	2,2461734E+000	-5,796073667911600E-003	2,000000000000000E+000	-5,1518129E-003	42	-1,3018986E-005
[...]
2	0	0	1	1	1,694566303141704E+005	1,6468704E+000	1,6463596E+000	-4,936575009970223E-002	2,000000000000000E+000	-2,5653997E-002	41	-8,1273778E-005
2	0	0	1	1	1,696232290402390E+005	1,5469111E+000	1,5464276E+000	-8,161686907646848E-002	2,000000000000000E+000	-3,6124930E-002	41	-1,2621458E-004
2	0	0	1	1	1,697898278663039E+005	1,4469520E+000	1,4463993E+000	-1,615753005597569E-001	2,000000000000000E+000	-5,6113955E-002	40	-2,3370241E-004
2	0	0	1	1	1,699564266923694E+005	1,3469927E+000	1,3464550E+000	-1,719134337005073E-001	2,000000000000000E+000	-8,5560426E-002	40	-2,3147369E-004
2	0	0	1	1	1,701230253184377E+005	1,2470336E+000	1,2464943E+000	-1,300921007069444E-001	2,000000000000000E+000	-1,1057832E-001	40	-1,6215906E-004
2	0	0	1	1	1,702896240445030E+005	1,1470745E+000	1,1464987E+000	-1,048957660719032E-001	2,000000000000000E+000	-1,2993859E-001	40	-1,2026286E-004
2	0	0	0	1	1,704562228705678E+005	1,0471152E+000	1,0465239E+000	-9,365862102725697E-002	2,000000000000000E+000	-1,4632031E-001	40	-9,8015989E-005
2	0	0	1	1	1,706206564962967E+005	1,0515133E+000	1,0509881E+000	-2,973725649534236E-002	2,000000000000000E+000	-1,5814309E-001	41	-3,1253501E-005
2	1	0	1	1	1,707872552223625E+005	1,1514726E+000	1,1508775E+000	1,725604735675745E-003	2,000000000000000E+000	-1,5990432E-001	42	1,9859597E-006
2	1	0	1	1	1,709538542484310E+005	1,2514318E+000	1,2508435E+000	1,279016755688081E-002	2,000000000000000E+000	-1,5856715E-001	41	1,5998497E-005
2	1	0	1	1	1,711204531744960E+005	1,3513911E+000	1,3507713E+000	1,932140196706633E-002	2,000000000000000E+000	-1,5585113E-001	41	2,6098796E-005
2	1	0	1	1	1,712870521005616E+005	1,4513502E+000	1,4507238E+000	2,541993872516785E-002	2,000000000000000E+000	-1,5212514E-001	41	3,6877311E-005
2	1	0	1	1	1,714536510266298E+005	1,5513095E+000	1,5507003E+000	3,432697062570426E-002	2,000000000000000E+000	-1,4722306E-001	41	5,3230844E-005
2	1	0	0	1	1,716202498526950E+005	1,6512687E+000	1,6506546E+000	1,180892459418250E-001	2,000000000000000E+000	-1,3675547E-001	40	1,9492455E-004
2	1	0	1	1	1,717868489787607E+005	1,7512280E+000	1,7506206E+000	2,005547751996939E-001	2,000000000000000E+000	-1,0881054E-001	40	3,5109531E-004
2	1	0	1	1	1,719534479048289E+005	1,8511872E+000	1,8505914E+000	1,749606984537424E-001	2,000000000000000E+000	-7,6254733E-002	40	3,2378075E-004
2	1	0	1	1	1,721200467308941E+005	1,9511461E+000	1,9505638E+000	1,166959451240841E-001	2,000000000000000E+000	-5,2047651E-002	40	2,2762289E-004
2	1	0	1	1	1,722866457569595E+005	2,0511053E+000	2,0505404E+000	7,364547300171376E-002	2,000000000000000E+000	-3,6453348E-002	40	1,5101302E-004
2	1	0	1	1	1,724534115830520E+005	2,1511645E+000	2,1505830E+000	4,717950369878154E-002	2,000000000000000E+000	-2,6558120E-002	41	1,0146344E-004
2	1	0	1	1	1,726200104091205E+005	2,2511241E+000	2,2505441E+000	3,113887200748799E-002	2,000000000000000E+000	-2,0141246E-002	41	7,0079404E-005
2	1	0	1	1	1,727866096351857E+005	2,3510833E+000	2,3505235E+000	2,226082684745700E-002	2,000000000000000E+000	-1,5766449E-002	41	5,2324594E-005
2	1	0	1	1	1,729532087612515E+005	2,4510424E+000	2,4504890E+000	1,807146756600347E-002	2,000000000000000E+000	-1,2447666E-002	41	4,4283934E-005
2	1	0	1	1	1,731198078873199E+005	2,5510013E+000	2,5504513E+000	1,614908648786623E-002	2,000000000000000E+000	-9,5969364E-003	41	4,1187457E-005
2	1	0	1	1	1,732864071133847E+005	2,6509609E+000	2,6504128E+000	1,490681888223941E-002	2,000000000000000E+000	-7,0192302E-003	41	3,9509225E-005
2	1	0	0	0	1,734376047370429E+005	2,7417748E+000	2,7412262E+000	1,546717953318966E-002	2,000000000000000E+000	-4,7550285E-003	41	4,2399039E-005

File: CV_LTO_Al_grafite_01_1mVs_08_CV_C03.mpt
EC-Lab ASCII FILE
Nb header lines : 57

Cyclic Voltammetry

Run on channel : 3 (SN 6807)
User :
Electrode connection : standard
Ewe ctrl range : min = 0,00 V, max = 5,00 V
Ewe,I filtering : 50 kHz
Safety Limits :
	Do not start on E overload
Channel : Grounded
Acquisition started on : 11/04/2020 18:19:46
Saved on :
	File : CV_LTO_Al_grafite_01_1mVs_08_CV_C03.mpr
	Directory : C:\Users\labsuperfici\Desktop\Biologic\Users\Prisca Viviani\201104\
	Host : 10.78.33.0
Device : VSP-300 (SN 0638)
Address : USB
EC-Lab for windows v11.31 (software)
Internet server v11.30 (firmware)
Command interpretor v11.31 (firmware)
Electrode material :
Initial state :
Electrolyte :
Comments :
Cable : standard
Reference electrode : SCE Saturated Calomel Electrode (0,241 V)
Electrode surface area : 0,001 cm²
Characteristic mass : 0,001 g
Equivalent Weight : 0,000 g/eq.
Density : 0,000 g/cm3
Cycle Definition : Charge/Discharge alternance
Ei (V)              0,000
vs.                 Eoc
dE/dt               0,700
dE/dt unit          mV/s
E1 (V)              1,000
vs.                 Ref
Step percent        50
N                   10
E range min (V)     0,000
E range max (V)     5,000
I Range             Auto
I Range min         Unset
I Range max         Unset
I Range init        Unset
Bandwidth           8
E2 (V)              2,700
vs.                 Ref
nc cycles           1
Reverse Scan        1
Ef (V)              0,000
vs.                 Eoc

mode	ox/red	error	control changes	counter inc.	time/s	control/V	Ewe/V	<I>/mA	cycle number	(Q-Qo)/C	I Range	P/W
2	1	0	0	0	1,734378475370780E+005	2,7417748E+000	2,7411919E+000	1,638155244290829E-002	1,000000000000000E+000	0,0000000E+000	41	4,4904977E-005
2	1	0	1	0	1,735800040593212E+005	2,6422644E+000	2,6417220E+000	1,424174438350299E-004	1,000000000000000E+000	5,3119636E-004	43	3,7622729E-007
2	0	0	1	0	1,737228026816635E+005	2,5423050E+000	2,5418043E+000	-2,600018419254547E-003	1,000000000000000E+000	3,2147797E-004	42	-6,6087382E-006
2	0	0	1	0	1,738656012040069E+005	2,4423459E+000	2,4418507E+000	-4,253674126280443E-003	1,000000000000000E+000	-1,8454318E-004	42	-1,0386837E-005
2	0	0	1	0	1,740084003263498E+005	2,3423865E+000	2,3419371E+000	-5,520993516339029E-003	1,000000000000000E+000	-8,9129771E-004	42	-1,2929820E-005
2	0	0	1	0	1,741511988486922E+005	2,2424276E+000	2,2419546E+000	-7,118466432467135E-003	1,000000000000000E+000	-1,7935266E-003	42	-1,5959278E-005
2	0	0	1	0	1,742939976710349E+005	2,1424682E+000	2,1420293E+000	-9,735096116265982E-003	1,000000000000000E+000	-2,9890086E-003	42	-2,0852862E-005
2	0	0	1	0	1,744367963933767E+005	2,0425088E+000	2,0419631E+000	-1,405080466586212E-002	1,000000000000000E+000	-4,6769297E-003	41	-2,8691225E-005
2	0	0	1	0	1,745795952157186E+005	1,9425499E+000	1,9419568E+000	-2,049616509993049E-002	1,000000000000000E+000	-7,1257111E-003	41	-3,9802668E-005
2	0	0	1	0	1,747223941380612E+005	1,8425907E+000	1,8420306E+000	-2,952888465620895E-002	1,000000000000000E+000	-1,0674472E-002	41	-5,4393109E-005
2	0	0	1	0	1,748651929604039E+005	1,7426314E+000	1,7421077E+000	-4,141307168872294E-002	1,000000000000000E+000	-1,5707251E-002	41	-7,2146031E-005
2	0	0	1	0	1,750079919827469E+005	1,6426721E+000	1,6421514E+000	-5,865138537528414E-002	1,000000000000000E+000	-2,2756092E-002	41	-9,6314448E-005
2	0	0	1	0	1,751507907050909E+005	1,5427129E+000	1,5422403E+000	-9,783166373946117E-002	1,000000000000000E+000	-3,3467662E-002	41	-1,5087993E-004
2	0	0	1	0	1,752935895274328E+005	1,4427538E+000	1,4421847E+000	-1,918296856909820E-001	1,000000000000000E+000	-5,3996298E-002	40	-2,7665382E-004
2	0	0	1	0	1,754363885497754E+005	1,3427947E+000	1,3421900E+000	-2,003508535347127E-001	1,000000000000000E+000	-8,3630599E-002	40	-2,6890892E-004
2	0	0	1	0	1,755791873721171E+005	1,2428354E+000	1,2422298E+000	-1,515982946444940E-001	1,000000000000000E+000	-1,0859962E-001	40	-1,8831993E-004
2	0	0	1	0	1,757219861944590E+005	1,1428761E+000	1,1422802E+000	-1,224000906238287E-001	1,000000000000000E+000	-1,2794656E-001	40	-1,3981521E-004
2	0	0	1	0	1,758647849168018E+005	1,0429169E+000	1,0423073E+000	-1,094861195534355E-001	1,000000000000000E+000	-1,4434601E-001	40	-1,1411818E-004
2	0	0	1	0	1,760054426388093E+005	1,0555117E+000	1,0549512E+000	-3,124972166828882E-002	1,000000000000000E+000	-1,5570489E-001	41	-3,2966931E-005
2	1	0	1	0	1,761482416611528E+005	1,1554708E+000	1,1548426E+000	3,550456266869548E-003	1,000000000000000E+000	-1,5714702E-001	42	4,1002181E-006
2	1	0	1	0	1,762910406834963E+005	1,2554302E+000	1,2547780E+000	1,599627225365796E-002	1,000000000000000E+000	-1,5563174E-001	41	2,0071771E-005
2	1	0	1	0	1,764338397058379E+005	1,3553894E+000	1,3547382E+000	2,339261280388799E-002	1,000000000000000E+000	-1,5278348E-001	41	3,1690866E-005
2	1	0	1	0	1,765766385281808E+005	1,4553487E+000	1,4546673E+000	3,046466471618381E-002	1,000000000000000E+000	-1,4893895E-001	41	4,4315952E-005
2	1	0	1	0	1,767194375505227E+005	1,5553080E+000	1,5546265E+000	4,141719505013741E-002	1,000000000000000E+000	-1,4390408E-001	41	6,4388267E-005
2	1	0	1	0	1,768622364728644E+005	1,6552670E+000	1,6546030E+000	1,513413825432308E-001	1,000000000000000E+000	-1,3234554E-001	40	2,5040991E-004
2	1	0	1	0	1,770050355952075E+005	1,7552263E+000	1,7545643E+000	2,427473281149366E-001	1,000000000000000E+000	-1,0265270E-001	40	4,2591579E-004
2	1	0	1	0	1,771478346175505E+005	1,8551854E+000	1,8545491E+000	2,013927550136063E-001	1,000000000000000E+000	-6,9747306E-002	40	3,7349274E-004
2	1	0	1	0	1,772906336398940E+005	1,9551448E+000	1,9545321E+000	1,303152843604609E-001	1,000000000000000E+000	-4,6205170E-002	40	2,5470540E-004
2	1	0	1	0	1,774334328622362E+005	2,0551040E+000	2,0545235E+000	8,021091458890917E-002	1,000000000000000E+000	-3,1454243E-002	40	1,6479520E-004
2	1	0	1	0	1,775762316845790E+005	2,1550632E+000	2,1545002E+000	5,063925661215890E-002	1,000000000000000E+000	-2,2292024E-002	40	1,0910229E-004
2	1	0	1	0	1,777191736069424E+005	2,2551227E+000	2,2545042E+000	3,346161852795848E-002	1,000000000000000E+000	-1,6383661E-002	41	7,5439362E-005
2	1	0	1	0	1,778619726292852E+005	2,3550816E+000	2,3544579E+000	2,414785378083290E-002	1,000000000000000E+000	-1,2340740E-002	41	5,6855104E-005
2	1	0	1	0	1,780047715516277E+005	2,4550407E+000	2,4544132E+000	2,003742046117779E-002	1,000000000000000E+000	-9,2188949E-003	41	4,9180107E-005
2	1	0	1	0	1,781475705739711E+005	2,5550003E+000	2,5544102E+000	1,814934581542671E-002	1,000000000000000E+000	-6,4867917E-003	41	4,6360874E-005
2	1	0	1	0	1,782903695963142E+005	2,6549594E+000	2,6543958E+000	1,694651743822861E-002	1,000000000000000E+000	-3,9903573E-003	41	4,4982764E-005
2	1	0	1	1	1,784311698183438E+005	2,6464627E+000	2,6458647E+000	3,162005129105513E-003	2,000000000000000E+000	-2,3883120E-003	42	8,3662380E-006
2	0	0	1	1	1,785739687406857E+005	2,5465033E+000	2,5459378E+000	-1,533775486852881E-003	2,000000000000000E+000	-2,3426451E-003	42	-3,9048969E-006
2	0	0	1	1	1,787167674630276E+005	2,4465444E+000	2,4460030E+000	-3,732333600879285E-003	2,000000000000000E+000	-2,7430232E-003	42	-9,1292986E-006
2	0	0	1	1	1,788595663853704E+005	2,3465850E+000	2,3460956E+000	-5,215846524633194E-003	2,000000000000000E+000	-3,3948948E-003	42	-1,2236875E-005
2	0	0	1	1	1,790023651077128E+005	2,2466259E+000	2,2461195E+000	-6,855635036827276E-003	2,000000000000000E+000	-4,2596054E-003	42	-1,5398575E-005
[...]
2	0	0	1	1	1,798591580417681E+005	1,6468706E+000	1,6463207E+000	-5,842917109904999E-002	2,000000000000000E+000	-2,5106965E-002	41	-9,6193151E-005
2	0	0	1	1	1,800019568641109E+005	1,5469115E+000	1,5464256E+000	-9,798565172364015E-002	2,000000000000000E+000	-3,5797145E-002	41	-1,5152752E-004
2	0	0	1	1	1,801447556864531E+005	1,4469521E+000	1,4463784E+000	-1,949929241070638E-001	2,000000000000000E+000	-5,6531515E-002	40	-2,8203355E-004
2	0	0	1	1	1,802875546087967E+005	1,3469930E+000	1,3464231E+000	-2,016207634624934E-001	2,000000000000000E+000	-8,6572744E-002	40	-2,7146685E-004
2	0	0	1	1	1,804303534311401E+005	1,2470336E+000	1,2464489E+000	-1,501300893427535E-001	2,000000000000000E+000	-1,1149953E-001	40	-1,8712948E-004
2	0	0	1	1	1,805731522534820E+005	1,1470745E+000	1,1464427E+000	-1,199298874857589E-001	2,000000000000000E+000	-1,3055630E-001	40	-1,3749274E-004
2	0	0	1	1	1,807159510758249E+005	1,0471152E+000	1,0464735E+000	-1,065833176792483E-001	2,000000000000000E+000	-1,4656182E-001	40	-1,1153662E-004
2	0	0	1	1	1,808568942978757E+005	1,0515134E+000	1,0509293E+000	-3,147930326201870E-002	2,000000000000000E+000	-1,5797809E-001	41	-3,3082524E-005
2	1	0	1	1	1,809996932202182E+005	1,1514727E+000	1,1508089E+000	4,162119308485271E-003	2,000000000000000E+000	-1,5935391E-001	42	4,7898043E-006
2	1	0	1	1	1,811424922425617E+005	1,2514319E+000	1,2507921E+000	1,635951681370268E-002	2,000000000000000E+000	-1,5776409E-001	41	2,0462356E-005
2	1	0	1	1	1,812852911649048E+005	1,3513911E+000	1,3507493E+000	2,346381213392118E-002	2,000000000000000E+000	-1,5488760E-001	41	3,1693726E-005
2	1	0	1	1	1,814280900872471E+005	1,4513502E+000	1,4506876E+000	3,017809337532040E-002	2,000000000000000E+000	-1,5106221E-001	41	4,3778986E-005
2	1	0	1	1	1,815708891095897E+005	1,5513096E+000	1,5506411E+000	4,033147234430523E-002	2,000000000000000E+000	-1,4610779E-001	41	6,2539635E-005
2	1	0	1	1	1,817136881319316E+005	1,6512687E+000	1,6506327E+000	1,402274647666371E-001	2,000000000000000E+000	-1,3547325E-001	40	2,3146404E-004
2	1	0	1	1	1,818564871542735E+005	1,7512280E+000	1,7505814E+000	2,363913631539598E-001	2,000000000000000E+000	-1,0716279E-001	40	4,1382233E-004
2	1	0	1	1	1,819992861766163E+005	1,8511873E+000	1,8505474E+000	2,047980345998859E-001	2,000000000000000E+000	-7,4368253E-002	40	3,7898848E-004
2	1	0	0	1	1,821420850989595E+005	1,9511464E+000	1,9505148E+000	1,349441701082411E-001	2,000000000000000E+000	-5,0202634E-002	40	2,6321059E-004
2	1	0	1	1	1,822848842213028E+005	2,0511053E+000	2,0504951E+000	8,385511330581175E-002	2,000000000000000E+000	-3,4858391E-002	40	1,7194450E-004
2	1	0	1	1	1,824276834436450E+005	2,1510646E+000	2,1504788E+000	5,316335592056620E-002	2,000000000000000E+000	-2,5254697E-002	40	1,1432667E-004
2	1	0	1	1	1,825706250660095E+005	2,2511239E+000	2,2504811E+000	3,522023561983766E-002	2,000000000000000E+000	-1,9037981E-002	41	7,9262478E-005
2	1	0	1	1	1,827134240883514E+005	2,3510830E+000	2,3504663E+000	2,514922606306702E-002	2,000000000000000E+000	-1,4796597E-002	41	5,9112408E-005
2	1	0	1	1	1,828562231106944E+005	2,4510424E+000	2,4504230E+000	2,050515396257113E-002	2,000000000000000E+000	-1,1573293E-002	41	5,0246301E-005
2	1	0	1	1	1,829990221330374E+005	2,5510015E+000	2,5503891E+000	1,834488513775295E-002	2,000000000000000E+000	-8,7980330E-003	41	4,6786594E-005
2	1	0	1	1	1,831418211553805E+005	2,6509612E+000	2,6503813E+000	1,698737811709608E-002	2,000000000000000E+000	-6,2832120E-003	41	4,5023029E-005
2	1	0	0	0	1,832714192756575E+005	2,7417748E+000	2,7411919E+000	1,779793180963572E-002	2,000000000000000E+000	-4,0615788E-003	41	4,8787544E-005