Folder: Randles-Sevcik/Dati/201104 (part 3)

File: CV_LTO_Al_grafite_01_1mVs_10_CV_C03.mpt
EC-Lab ASCII FILE
Nb header lines : 57

Cyclic Voltammetry

Run on channel : 3 (SN 6807)
User :
Electrode connection : standard
Ewe ctrl range : min = 0,00 V, max = 5,00 V
Ewe,I filtering : 50 kHz
Safety Limits :
	Do not start on E overload
Channel : Grounded
Acquisition started on : 11/04/2020 18:19:46
Saved on :
	File : CV_LTO_Al_grafite_01_1mVs_10_CV_C03.mpr
	Directory : C:\Users\labsuperfici\Desktop\Biologic\Users\Prisca Viviani\201104\
	Host : 10.78.33.0
Device : VSP-300 (SN 0638)
Address : USB
EC-Lab for windows v11.31 (software)
Internet server v11.30 (firmware)
Command interpretor v11.31 (firmware)
Electrode material :
Initial state :
Electrolyte :
Comments :
Cable : standard
Reference electrode : SCE Saturated Calomel Electrode (0,241 V)
Electrode surface area : 0,001 cm²
Characteristic mass : 0,001 g
Equivalent Weight : 0,000 g/eq.
Density : 0,000 g/cm3
Cycle Definition : Charge/Discharge alternance
Ei (V)              0,000
vs.                 Eoc
dE/dt               0,900
dE/dt unit          mV/s
E1 (V)              1,000
vs.                 Ref
Step percent        50
N                   10
E range min (V)     0,000
E range max (V)     5,000
I Range             Auto
I Range min         Unset
I Range max         Unset
I Range init        Unset
Bandwidth           8
E2 (V)              2,700
vs.                 Ref
nc cycles           1
Reverse Scan        1
Ef (V)              0,000
vs.                 Eoc

mode	ox/red	error	control changes	counter inc.	time/s	control/V	Ewe/V	<I>/mA	cycle number	(Q-Qo)/C	I Range	P/W
2	1	0	0	0	1,918762332219813E+005	2,7417748E+000	2,7411346E+000	2,098818123340607E-002	1,000000000000000E+000	0,0000000E+000	41	5,7531430E-005
2	1	0	1	0	1,919867993392800E+005	2,6422646E+000	2,6416636E+000	2,968236971138084E-004	1,000000000000000E+000	5,3264800E-004	43	7,8410835E-007
2	0	0	1	0	1,920978650566572E+005	2,5423052E+000	2,5417812E+000	-3,146716329142311E-003	1,000000000000000E+000	3,4319839E-004	42	-7,9982647E-006
2	0	0	1	0	1,922089307740363E+005	2,4423459E+000	2,4418299E+000	-5,272136687325971E-003	1,000000000000000E+000	-1,4058730E-004	42	-1,2873661E-005
2	0	0	1	0	1,923199966914144E+005	2,3423865E+000	2,3419092E+000	-6,940328327224271E-003	1,000000000000000E+000	-8,2802365E-004	42	-1,6253618E-005
2	0	0	1	0	1,924310624087905E+005	2,2424276E+000	2,2419634E+000	-8,916781203552999E-003	1,000000000000000E+000	-1,7080340E-003	42	-1,9991097E-005
2	0	0	1	0	1,925421282261673E+005	2,1424685E+000	2,1418760E+000	-1,220580221938611E-002	1,000000000000000E+000	-2,8740689E-003	41	-2,6143314E-005
2	0	0	1	0	1,926531939435452E+005	2,0425091E+000	2,0419140E+000	-1,748626131639991E-002	1,000000000000000E+000	-4,5105191E-003	41	-3,5705441E-005
2	0	0	1	0	1,927642597609241E+005	1,9425498E+000	1,9419569E+000	-2,533850009286343E-002	1,000000000000000E+000	-6,8699080E-003	41	-4,9206275E-005
2	0	0	1	0	1,928753256783015E+005	1,8425906E+000	1,8420510E+000	-3,617664917462082E-002	1,000000000000000E+000	-1,0263288E-002	41	-6,6639237E-005
2	0	0	1	0	1,929863914956785E+005	1,7426316E+000	1,7420894E+000	-5,044470640716991E-002	1,000000000000000E+000	-1,5043637E-002	41	-8,7879191E-005
2	0	0	1	0	1,930974574130545E+005	1,6426721E+000	1,6421704E+000	-7,048579738304150E-002	1,000000000000000E+000	-2,1684052E-002	41	-1,1574970E-004
2	0	0	1	0	1,932085232304335E+005	1,5427129E+000	1,5421379E+000	-1,125414949711054E-001	1,000000000000000E+000	-3,1491820E-002	40	-1,7355449E-004
2	0	0	1	0	1,933195890478124E+005	1,4427538E+000	1,4421815E+000	-2,096661863053879E-001	1,000000000000000E+000	-4,9093544E-002	40	-3,0237669E-004
2	0	0	1	0	1,934306548651886E+005	1,3427945E+000	1,3422145E+000	-2,429581544453678E-001	1,000000000000000E+000	-7,5456470E-002	40	-3,2610196E-004
2	0	0	1	0	1,935417207825659E+005	1,2428354E+000	1,2422301E+000	-1,937075785583500E-001	1,000000000000000E+000	-9,9819303E-002	40	-2,4062938E-004
2	0	0	1	0	1,936527865999429E+005	1,1428761E+000	1,1422577E+000	-1,568556096695919E-001	1,000000000000000E+000	-1,1910038E-001	40	-1,7916952E-004
2	0	0	1	0	1,937638523173216E+005	1,0429170E+000	1,0422993E+000	-1,389736748675561E-001	1,000000000000000E+000	-1,3537890E-001	40	-1,4485217E-004
2	0	0	1	0	1,938732529344375E+005	1,0555117E+000	1,0549189E+000	-4,929209361386422E-002	1,000000000000000E+000	-1,4700758E-001	40	-5,1999159E-005
2	0	0	1	0	1,939843188518155E+005	1,1554710E+000	1,1549046E+000	-3,367018954164989E-003	1,000000000000000E+000	-1,4942735E-001	42	-3,8885855E-006
2	1	0	1	0	1,940953846691945E+005	1,2554302E+000	1,2547796E+000	1,404153317416218E-002	1,000000000000000E+000	-1,4871357E-001	41	1,7619030E-005
2	1	0	1	0	1,942064506865717E+005	1,3553896E+000	1,3547310E+000	2,431142057043018E-002	1,000000000000000E+000	-1,4654475E-001	41	3,2935433E-005
2	1	0	1	0	1,943175164039486E+005	1,4553485E+000	1,4546651E+000	3,348949016316549E-002	1,000000000000000E+000	-1,4333363E-001	41	4,8715992E-005
2	1	0	1	0	1,944285824213247E+005	1,5553077E+000	1,5546458E+000	4,644107452319694E-002	1,000000000000000E+000	-1,3896300E-001	41	7,2199422E-005
2	1	0	1	0	1,945396482387036E+005	1,6552670E+000	1,6546280E+000	1,453582388916659E-001	1,000000000000000E+000	-1,3002625E-001	40	2,4051382E-004
2	1	0	1	0	1,946507143560830E+005	1,7552265E+000	1,7545936E+000	2,589935905451273E-001	1,000000000000000E+000	-1,0670467E-001	40	4,5442849E-004
2	1	0	1	0	1,947617802734588E+005	1,8551854E+000	1,8545651E+000	2,591926912912044E-001	1,000000000000000E+000	-7,6763973E-002	40	4,8068972E-004
2	1	0	1	0	1,948728461908360E+005	1,9551448E+000	1,9545281E+000	1,873579783725815E-001	1,000000000000000E+000	-5,1818632E-002	40	3,6619644E-004
2	1	0	1	0	1,949839122082135E+005	2,0551040E+000	2,0544932E+000	1,215637460812531E-001	1,000000000000000E+000	-3,4838926E-002	40	2,4975190E-004
2	1	0	1	0	1,950949781255922E+005	2,1550632E+000	2,1544659E+000	7,749148476068134E-002	1,000000000000000E+000	-2,3970047E-002	40	1,6695276E-004
2	1	0	1	0	1,952060440429701E+005	2,2550223E+000	2,2544303E+000	5,056695762258945E-002	1,000000000000000E+000	-1,6981700E-002	40	1,1399968E-004
2	1	0	1	0	1,953171099603468E+005	2,3549814E+000	2,3543618E+000	3,512822664211157E-002	1,000000000000000E+000	-1,2292421E-002	41	8,2704551E-005
2	1	0	1	0	1,954281760777230E+005	2,4549406E+000	2,4543343E+000	2,721088337060532E-002	1,000000000000000E+000	-8,8778157E-003	41	6,6784603E-005
2	1	0	1	0	1,955392417951017E+005	2,5548999E+000	2,5542951E+000	2,339968565984651E-002	1,000000000000000E+000	-6,0770470E-003	41	5,9769700E-005
2	1	0	1	0	1,956503077124809E+005	2,6548593E+000	2,6542952E+000	2,113366034366648E-002	1,000000000000000E+000	-3,6153803E-003	41	5,6094974E-005
2	1	0	1	1	1,957599302296313E+005	2,6464624E+000	2,6458421E+000	4,144562630095175E-003	2,000000000000000E+000	-2,0585759E-003	42	1,0965859E-005
2	0	0	1	1	1,958709960470102E+005	2,5465035E+000	2,5459263E+000	-1,618958651414532E-003	2,000000000000000E+000	-1,9817660E-003	42	-4,1217495E-006
2	0	0	1	1	1,959820619643864E+005	2,4465444E+000	2,4460104E+000	-4,402700730376734E-003	2,000000000000000E+000	-2,3377489E-003	42	-1,0769051E-005
2	0	0	1	1	1,960931276817631E+005	2,3465848E+000	2,3460901E+000	-6,347312957613274E-003	2,000000000000000E+000	-2,9466499E-003	42	-1,4891368E-005
2	0	0	1	1	1,962041934991404E+005	2,2466257E+000	2,2461514E+000	-8,373424952810571E-003	2,000000000000000E+000	-3,7667234E-003	42	-1,8807981E-005
[...]
2	0	0	1	1	1,968705884034075E+005	1,6468705E+000	1,6463219E+000	-6,890612433371102E-002	2,000000000000000E+000	-2,3183186E-002	41	-1,1344166E-004
2	0	0	1	1	1,969816542207845E+005	1,5469114E+000	1,5463244E+000	-1,090661086383444E-001	2,000000000000000E+000	-3,2725874E-002	40	-1,6865158E-004
2	0	0	1	1	1,970927201381617E+005	1,4469522E+000	1,4463826E+000	-2,041625335881654E-001	2,000000000000000E+000	-4,9743503E-002	40	-2,9529716E-004
2	0	0	1	1	1,972037860555379E+005	1,3469927E+000	1,3464148E+000	-2,429911128308753E-001	2,000000000000000E+000	-7,5777173E-002	40	-3,2716684E-004
2	0	0	1	1	1,973148517729170E+005	1,2470337E+000	1,2464644E+000	-1,948841837951352E-001	2,000000000000000E+000	-1,0026588E-001	40	-2,4291620E-004
2	0	0	1	1	1,974259175902959E+005	1,1470745E+000	1,1464758E+000	-1,569300424592510E-001	2,000000000000000E+000	-1,1961888E-001	40	-1,7991649E-004
2	0	0	1	1	1,975369835076721E+005	1,0471152E+000	1,0464872E+000	-1,382941405641769E-001	2,000000000000000E+000	-1,3585940E-001	40	-1,4472305E-004
2	0	0	1	1	1,976466061248248E+005	1,0515134E+000	1,0509194E+000	-5,224703757825255E-002	2,000000000000000E+000	-1,4781705E-001	40	-5,4907425E-005
2	0	0	1	1	1,977576719422013E+005	1,1514724E+000	1,1509050E+000	-4,214593231893113E-003	2,000000000000000E+000	-1,5041545E-001	42	-4,8505963E-006
2	1	0	1	1	1,978687378595776E+005	1,2514319E+000	1,2508245E+000	1,357600737402313E-002	2,000000000000000E+000	-1,4976931E-001	41	1,6981203E-005
2	1	0	1	1	1,979798037769562E+005	1,3513911E+000	1,3507403E+000	2,387557024699141E-002	2,000000000000000E+000	-1,4764909E-001	41	3,2249696E-005
2	1	0	1	1	1,980908695943346E+005	1,4513502E+000	1,4506973E+000	3,293327930575246E-002	2,000000000000000E+000	-1,4449179E-001	41	4,7776219E-005
2	1	0	1	1	1,982019356117117E+005	1,5513095E+000	1,5506271E+000	4,534695054254723E-002	2,000000000000000E+000	-1,4020312E-001	41	7,0316208E-005
2	1	0	1	1	1,983130014290886E+005	1,6512686E+000	1,6506296E+000	1,376083417845724E-001	2,000000000000000E+000	-1,3177331E-001	40	2,2714041E-004
2	1	0	1	1	1,984240674464656E+005	1,7512280E+000	1,7505931E+000	2,547746673058997E-001	2,000000000000000E+000	-1,0915339E-001	40	4,4600677E-004
2	1	0	1	1	1,985351334638442E+005	1,8511871E+000	1,8505497E+000	2,614810646030534E-001	2,000000000000000E+000	-7,9316229E-002	40	4,8388372E-004
2	1	0	1	1	1,986461992812234E+005	1,9511462E+000	1,9505162E+000	1,908101713917123E-001	2,000000000000000E+000	-5,4007705E-002	40	3,7217833E-004
2	1	0	1	1	1,987572653985995E+005	2,0511057E+000	2,0504959E+000	1,239557981652315E-001	2,000000000000000E+000	-3,6696374E-002	40	2,5417085E-004
2	1	0	1	1	1,988683314159755E+005	2,1510649E+000	2,1504750E+000	7,881718105451596E-002	2,000000000000000E+000	-2,5622498E-002	40	1,6949438E-004
2	1	0	1	1	1,989793972333544E+005	2,2510242E+000	2,2504194E+000	5,123482366321086E-002	2,000000000000000E+000	-1,8525830E-002	40	1,1529984E-004
2	1	0	1	1	1,990905742507507E+005	2,3510835E+000	2,3504503E+000	3,539190129993330E-002	2,000000000000000E+000	-1,3782168E-002	41	8,3186904E-005
2	1	0	1	1	1,992016402681271E+005	2,4510424E+000	2,4504368E+000	2,727090564073026E-002	2,000000000000000E+000	-1,0352422E-002	41	6,6825633E-005
2	1	0	1	1	1,993127060855038E+005	2,5510018E+000	2,5504262E+000	2,339841650851995E-002	2,000000000000000E+000	-7,5516826E-003	41	5,9675935E-005
2	1	0	1	1	1,994237721028822E+005	2,6509612E+000	2,6503675E+000	2,104426583344979E-002	2,000000000000000E+000	-5,0950400E-003	41	5,5775039E-005
2	1	0	0	0	1,995245706186532E+005	2,7417748E+000	2,7412033E+000	2,149998472520598E-002	2,000000000000000E+000	-2,9790299E-003	41	5,8935828E-005

File: CV_LTO_Al_grafite_01_1mVs_11_CV_C03.mpt
EC-Lab ASCII FILE
Nb header lines : 57

Cyclic Voltammetry

Run on channel : 3 (SN 6807)
User :
Electrode connection : standard
Ewe ctrl range : min = 0,00 V, max = 5,00 V
Ewe,I filtering : 50 kHz
Safety Limits :
	Do not start on E overload
Channel : Grounded
Acquisition started on : 11/04/2020 18:19:46
Saved on :
	File : CV_LTO_Al_grafite_01_1mVs_11_CV_C03.mpr
	Directory : C:\Users\labsuperfici\Desktop\Biologic\Users\Prisca Viviani\201104\
	Host : 10.78.33.0
Device : VSP-300 (SN 0638)
Address : USB
EC-Lab for windows v11.31 (software)
Internet server v11.30 (firmware)
Command interpretor v11.31 (firmware)
Electrode material :
Initial state :
Electrolyte :
Comments :
Cable : standard
Reference electrode : SCE Saturated Calomel Electrode (0,241 V)
Electrode surface area : 0,001 cm²
Characteristic mass : 0,001 g
Equivalent Weight : 0,000 g/eq.
Density : 0,000 g/cm3
Cycle Definition : Charge/Discharge alternance
Ei (V)              0,000
vs.                 Eoc
dE/dt               1,000
dE/dt unit          mV/s
E1 (V)              1,000
vs.                 Ref
Step percent        50
N                   10
E range min (V)     0,000
E range max (V)     5,000
I Range             Auto
I Range min         Unset
I Range max         Unset
I Range init        Unset
Bandwidth           8
E2 (V)              2,700
vs.                 Ref
nc cycles           1
Reverse Scan        1
Ef (V)              0,000
vs.                 Eoc

mode	ox/red	error	control changes	counter inc.	time/s	control/V	Ewe/V	<I>/mA	cycle number	(Q-Qo)/C	I Range	P/W
2	1	0	0	0	1,995247708186833E+005	2,7417748E+000	2,7411461E+000	2,323091775178909E-002	1,000000000000000E+000	0,0000000E+000	41	6,3679341E-005
2	1	0	1	0	1,996243801342696E+005	2,6421645E+000	2,6415284E+000	4,239393806798560E-004	1,000000000000000E+000	5,3806201E-004	43	1,1198479E-006
2	0	0	1	0	1,997243393499092E+005	2,5422053E+000	2,5416856E+000	-3,352184811305177E-003	1,000000000000000E+000	3,6439745E-004	42	-8,5202000E-006
2	0	0	1	0	1,998242985655488E+005	2,4422460E+000	2,4417341E+000	-5,686847478170219E-003	1,000000000000000E+000	-1,0093836E-004	42	-1,3885769E-005
2	0	0	1	0	1,999242578811892E+005	2,3422868E+000	2,3418095E+000	-7,544516016097937E-003	1,000000000000000E+000	-7,7034882E-004	42	-1,7667819E-005
2	0	0	1	0	2,000242169968293E+005	2,2423277E+000	2,2419021E+000	-9,680575677395227E-003	1,000000000000000E+000	-1,6305457E-003	42	-2,1702903E-005
2	0	0	1	0	2,001241763124685E+005	2,1423683E+000	2,1418135E+000	-1,324416331298908E-002	1,000000000000000E+000	-2,7696122E-003	41	-2,8366529E-005
2	0	0	1	0	2,002241355281081E+005	2,0424092E+000	2,0418518E+000	-1,893583086550946E-002	1,000000000000000E+000	-4,3650484E-003	41	-3,8664159E-005
2	0	0	1	0	2,003240948437477E+005	1,9424502E+000	1,9418701E+000	-2,732003752827122E-002	1,000000000000000E+000	-6,6592311E-003	41	-5,3051965E-005
2	0	0	1	0	2,004240540593881E+005	1,8424907E+000	1,8419491E+000	-3,892938849386890E-002	1,000000000000000E+000	-9,9498341E-003	41	-7,1705952E-005
2	0	0	1	0	2,005240132750282E+005	1,7425317E+000	1,7420017E+000	-5,421782480561688E-002	1,000000000000000E+000	-1,4577358E-002	41	-9,4447540E-005
2	0	0	1	0	2,006239724906676E+005	1,6425723E+000	1,6421008E+000	-7,538933196411068E-002	1,000000000000000E+000	-2,0988146E-002	41	-1,2379688E-004
2	0	0	1	0	2,007239318063073E+005	1,5426129E+000	1,5420316E+000	-1,176139794228824E-001	1,000000000000000E+000	-3,0333638E-002	40	-1,8136448E-004
2	0	0	1	0	2,008238909219470E+005	1,4426538E+000	1,4421024E+000	-2,138201591578473E-001	1,000000000000000E+000	-4,6573095E-002	40	-3,0835057E-004
2	0	0	1	0	2,009238502375865E+005	1,3426945E+000	1,3421123E+000	-2,594838222928120E-001	1,000000000000000E+000	-7,1247898E-002	40	-3,4825644E-004
2	0	0	1	0	2,010238094532269E+005	1,2427353E+000	1,2421463E+000	-2,147009471846166E-001	1,000000000000000E+000	-9,5200829E-002	40	-2,6668998E-004
2	0	0	1	0	2,011237686688665E+005	1,1427761E+000	1,1421809E+000	-1,745799148860512E-001	1,000000000000000E+000	-1,1449322E-001	40	-1,9940185E-004
2	0	0	1	0	2,012237278845063E+005	1,0428169E+000	1,0422320E+000	-1,542879673576387E-001	1,000000000000000E+000	-1,3078532E-001	40	-1,6080386E-004
2	0	0	1	0	2,013220884998962E+005	1,0555117E+000	1,0549246E+000	-5,986428236176827E-002	1,000000000000000E+000	-1,4258198E-001	40	-6,3152307E-005
2	0	0	1	0	2,014220477155354E+005	1,1554708E+000	1,1548756E+000	-8,396819011972964E-003	1,000000000000000E+000	-1,4550845E-001	41	-9,6972817E-006
2	1	0	1	0	2,015220071311751E+005	1,2554301E+000	1,2548229E+000	1,194986664520820E-002	1,000000000000000E+000	-1,4520416E-001	41	1,4994966E-005
2	1	0	1	0	2,016219663468157E+005	1,3553892E+000	1,3547232E+000	2,394476764488018E-002	1,000000000000000E+000	-1,4336821E-001	41	3,2438533E-005
2	1	0	1	0	2,017219255624551E+005	1,4553485E+000	1,4546824E+000	3,436543472993797E-002	1,000000000000000E+000	-1,4045100E-001	41	4,9990791E-005
2	1	0	1	0	2,018218848780952E+005	1,5553079E+000	1,5546319E+000	4,847529758137337E-002	1,000000000000000E+000	-1,3637125E-001	41	7,5361248E-005
2	1	0	1	0	2,019218441937345E+005	1,6552670E+000	1,6546513E+000	1,440626615748406E-001	1,000000000000000E+000	-1,2827545E-001	40	2,3837347E-004
2	1	0	1	0	2,020218035093741E+005	1,7552263E+000	1,7546252E+000	2,654309927154395E-001	1,000000000000000E+000	-1,0712659E-001	40	4,6573192E-004
2	1	0	1	0	2,021217628250148E+005	1,8551855E+000	1,8545555E+000	2,831817849487599E-001	1,000000000000000E+000	-7,8680106E-002	40	5,2517635E-004
2	1	0	1	0	2,022217220406539E+005	1,9551446E+000	1,9545612E+000	2,146693851769435E-001	1,000000000000000E+000	-5,3511076E-002	40	4,1958445E-004
2	1	0	1	0	2,023216813562941E+005	2,0551038E+000	2,0545132E+000	1,423815782820322E-001	1,000000000000000E+000	-3,5792414E-002	40	2,9252484E-004
2	1	0	1	0	2,024216407719337E+005	2,1550632E+000	2,1544795E+000	9,092182514496283E-002	1,000000000000000E+000	-2,4315180E-002	40	1,9588921E-004
2	1	0	1	0	2,025215999875730E+005	2,2550223E+000	2,2544427E+000	5,901606424829714E-002	1,000000000000000E+000	-1,6949859E-002	40	1,3304834E-004
2	1	0	1	0	2,026215595032137E+005	2,3549817E+000	2,3543646E+000	4,050350031011218E-002	1,000000000000000E+000	-1,2056876E-002	41	9,5360010E-005
2	1	0	1	0	2,027215189188530E+005	2,4549408E+000	2,4543087E+000	3,075100205006398E-002	1,000000000000000E+000	-8,5473368E-003	41	7,5472453E-005
2	1	0	1	0	2,028214781344933E+005	2,5548999E+000	2,5542834E+000	2,595247350918263E-002	1,000000000000000E+000	-5,7290355E-003	41	6,6289969E-005
2	1	0	1	0	2,029214374501329E+005	2,6548591E+000	2,6543095E+000	2,316187862559786E-002	1,000000000000000E+000	-3,2863962E-003	41	6,1478793E-005
2	1	0	1	1	2,030200974655694E+005	2,6464627E+000	2,6458490E+000	4,600455226126024E-003	2,000000000000000E+000	-1,7504069E-003	42	1,2172110E-005
2	0	0	1	1	2,031200566812097E+005	2,5465033E+000	2,5459762E+000	-1,667095830510546E-003	2,000000000000000E+000	-1,6639640E-003	42	-4,2443862E-006
2	0	0	1	1	2,032200158968488E+005	2,4465444E+000	2,4460340E+000	-4,742625405140061E-003	2,000000000000000E+000	-2,0043468E-003	42	-1,1600623E-005
2	0	0	1	1	2,033199752124893E+005	2,3465850E+000	2,3461168E+000	-6,884894775482245E-003	2,000000000000000E+000	-2,5964181E-003	42	-1,6152768E-005
2	0	0	1	1	2,034199343281288E+005	2,2466259E+000	2,2461765E+000	-9,145035139101115E-003	2,000000000000000E+000	-3,3981726E-003	42	-2,0541363E-005
[...]
2	0	0	1	1	2,040196898219672E+005	1,6468706E+000	1,6463795E+000	-7,369157384785541E-002	2,000000000000000E+000	-2,2216326E-002	41	-1,2132429E-004
2	0	0	1	1	2,041196491376073E+005	1,5469112E+000	1,5463533E+000	-1,141274333579495E-001	2,000000000000000E+000	-3,1317316E-002	40	-1,7648134E-004
2	0	0	1	1	2,042196082532475E+005	1,4469521E+000	1,4463817E+000	-2,079895352146219E-001	2,000000000000000E+000	-4,7029600E-002	40	-3,0083227E-004
2	0	0	1	1	2,043195675688870E+005	1,3469929E+000	1,3464527E+000	-2,587961209944019E-001	2,000000000000000E+000	-7,1351297E-002	40	-3,4845673E-004
2	0	0	1	1	2,044195266845264E+005	1,2470336E+000	1,2464648E+000	-2,159842873626125E-001	2,000000000000000E+000	-9,5395207E-002	40	-2,6921683E-004
2	0	0	1	1	2,045194860001659E+005	1,1470742E+000	1,1464792E+000	-1,748664451779498E-001	2,000000000000000E+000	-1,1476821E-001	40	-2,0048075E-004
2	0	0	1	1	2,046194451158065E+005	1,0471152E+000	1,0465176E+000	-1,537571216216442E-001	2,000000000000000E+000	-1,3104331E-001	40	-1,6090953E-004
2	0	0	1	1	2,047181057312430E+005	1,0515137E+000	1,0509263E+000	-6,312458077027350E-002	2,000000000000000E+000	-1,4317623E-001	40	-6,6339286E-005
2	0	0	1	1	2,048180649468822E+005	1,1514728E+000	1,1508996E+000	-9,415356189332202E-003	2,000000000000000E+000	-1,4628543E-001	41	-1,0836130E-005
2	1	0	1	1	2,049180242625223E+005	1,2514318E+000	1,2508477E+000	1,145198117879394E-002	2,000000000000000E+000	-1,4605179E-001	41	1,4324684E-005
2	1	0	1	1	2,050179834781626E+005	1,3513910E+000	1,3507341E+000	2,346997815987673E-002	2,000000000000000E+000	-1,4426370E-001	41	3,1701700E-005
2	1	0	1	1	2,051179426938016E+005	1,4513501E+000	1,4507074E+000	3,376399337190691E-002	2,000000000000000E+000	-1,4139926E-001	41	4,8981678E-005
2	1	0	1	1	2,052179021094418E+005	1,5513093E+000	1,5506566E+000	4,737856237248488E-002	2,000000000000000E+000	-1,3739638E-001	41	7,3467876E-005
2	1	0	1	1	2,053178613250811E+005	1,6512686E+000	1,6506404E+000	1,362798103816583E-001	2,000000000000000E+000	-1,2973927E-001	40	2,2494896E-004
2	1	0	1	1	2,054178207407221E+005	1,7512279E+000	1,7505736E+000	2,607476376521132E-001	2,000000000000000E+000	-1,0925040E-001	40	4,5645793E-004
2	1	0	1	1	2,055177799563616E+005	1,8511872E+000	1,8505694E+000	2,846259309327959E-001	2,000000000000000E+000	-8,0965757E-002	40	5,2672002E-004
2	1	0	1	1	2,056177391720004E+005	1,9511464E+000	1,9505446E+000	2,181593187542311E-001	2,000000000000000E+000	-5,5502482E-002	40	4,2552949E-004
2	1	0	1	1	2,057176984876413E+005	2,0511055E+000	2,0505049E+000	1,450805816282945E-001	2,000000000000000E+000	-3,7468523E-002	40	2,9748844E-004
2	1	0	1	1	2,058176580032801E+005	2,1510646E+000	2,1504955E+000	9,252460739634327E-002	2,000000000000000E+000	-2,5778206E-002	40	1,9897375E-004
2	1	0	1	1	2,059176172189210E+005	2,2510240E+000	2,2504406E+000	5,986269224446775E-002	2,000000000000000E+000	-1,8294862E-002	40	1,3471743E-004
2	1	0	1	1	2,060175766345607E+005	2,3509831E+000	2,3503764E+000	4,090940839398716E-002	2,000000000000000E+000	-1,3341882E-002	41	9,6152507E-005
2	1	0	1	1	2,061175358502008E+005	2,4509420E+000	2,4503095E+000	3,087511468611480E-002	2,000000000000000E+000	-9,8076826E-003	41	7,5653588E-005
2	1	0	1	1	2,062174954658397E+005	2,5509017E+000	2,5503178E+000	2,599057136399111E-002	2,000000000000000E+000	-6,9828006E-003	41	6,6284214E-005
2	1	0	1	1	2,063174544814790E+005	2,6508603E+000	2,6502774E+000	2,314736346994681E-002	2,000000000000000E+000	-4,5397058E-003	41	6,1346931E-005
2	1	0	1	0	2,064082732956894E+005	2,7417748E+000	2,7412376E+000	2,330406528452167E-002	2,000000000000000E+000	-2,4590867E-003	41	6,3881984E-005