Folder: Randles-Sevcik/Dati/201104_LTO-CNT

File: CV_LTO_Al_grafite_01_1mVs_03_CV_C03.mpt
EC-Lab ASCII FILE
Nb header lines : 57

Cyclic Voltammetry

Run on channel : 3 (SN 6807)
User :
Electrode connection : standard
Ewe ctrl range : min = 0,00 V, max = 5,00 V
Ewe,I filtering : 50 kHz
Safety Limits :
	Do not start on E overload
Channel : Grounded
Acquisition started on : 11/04/2020 18:19:46
Saved on :
	File : CV_LTO_Al_grafite_01_1mVs_03_CV_C03.mpr
	Directory : C:\Users\labsuperfici\Desktop\Biologic\Users\Prisca Viviani\201104\
	Host : 10.78.33.0
Device : VSP-300 (SN 0638)
Address : USB
EC-Lab for windows v11.31 (software)
Internet server v11.30 (firmware)
Command interpretor v11.31 (firmware)
Electrode material :
Initial state :
Electrolyte :
Comments :
Cable : standard
Reference electrode : SCE Saturated Calomel Electrode (0,241 V)
Electrode surface area : 0,001 cm²
Characteristic mass : 0,001 g
Equivalent Weight : 0,000 g/eq.
Density : 0,000 g/cm3
Cycle Definition : Charge/Discharge alternance
Ei (V)              0,000
vs.                 Eoc
dE/dt               0,200
dE/dt unit          mV/s
E1 (V)              1,000
vs.                 Ref
Step percent        50
N                   10
E range min (V)     0,000
E range max (V)     5,000
I Range             Auto
I Range min         Unset
I Range max         Unset
I Range init        Unset
Bandwidth           8
E2 (V)              2,700
vs.                 Ref
nc cycles           1
Reverse Scan        1
Ef (V)              0,000
vs.                 Eoc

mode	ox/red	error	control changes	counter inc.	time/s	control/V	Ewe/V	<I>/mA	cycle number	(Q-Qo)/C	I Range	P/W
2	1	0	1	0	7,362548889693129E+004	2,7417748E+000	2,7412071E+000	4,110829904675484E-003	1,000000000000000E+000	0,0000000E+000	42	1,1268637E-005
2	0	0	1	0	7,412353407908278E+004	2,6421645E+000	2,6416411E+000	-1,502989025060763E-004	1,000000000000000E+000	4,1263097E-004	43	-3,9703576E-007
2	0	0	1	0	7,462332816088956E+004	2,5422053E+000	2,5416899E+000	-9,138091801007657E-004	1,000000000000000E+000	9,5711730E-005	42	-2,3226196E-006
2	0	0	1	0	7,512312234264519E+004	2,4422460E+000	2,4417293E+000	-1,427757133929963E-003	1,000000000000000E+000	-5,2689371E-004	42	-3,4861964E-006
2	0	0	1	0	7,562291652443772E+004	2,3422871E+000	2,3417833E+000	-1,850853264061918E-003	1,000000000000000E+000	-1,3813301E-003	42	-4,3342970E-006
2	0	0	1	0	7,612271060621078E+004	2,2423277E+000	2,2417998E+000	-2,358021000719270E-003	1,000000000000000E+000	-2,4642206E-003	42	-5,2862110E-006
2	0	0	1	0	7,662250518798479E+004	2,1423683E+000	2,1418657E+000	-3,176154973931589E-003	1,000000000000000E+000	-3,8599006E-003	42	-6,8028976E-006
2	0	0	1	0	7,712229896977590E+004	2,0424092E+000	2,0419028E+000	-4,574099081822852E-003	1,000000000000000E+000	-5,7969741E-003	42	-9,3398658E-006
2	0	0	1	0	7,762209435153339E+004	1,9424499E+000	1,9419760E+000	-6,753889303808922E-003	1,000000000000000E+000	-8,6244177E-003	42	-1,3115890E-005
2	0	0	1	0	7,812188993333903E+004	1,8424908E+000	1,8420445E+000	-9,660114496657275E-003	1,000000000000000E+000	-1,2721156E-002	42	-1,7794360E-005
2	0	0	1	0	7,862168571508012E+004	1,7425317E+000	1,7419919E+000	-1,357611557892298E-002	1,000000000000000E+000	-1,8498302E-002	41	-2,3649483E-005
2	0	0	1	0	7,912148119689897E+004	1,6425724E+000	1,6420475E+000	-1,989695272065822E-002	1,000000000000000E+000	-2,6703615E-002	41	-3,2671742E-005
2	0	0	1	0	7,962127687863586E+004	1,5426130E+000	1,5421067E+000	-4,360713527581328E-002	1,000000000000000E+000	-4,0859416E-002	41	-6,7246860E-005
2	0	0	1	0	8,012107256045030E+004	1,4426538E+000	1,4421898E+000	-7,675357246359271E-002	1,000000000000000E+000	-7,6200657E-002	41	-1,1069322E-004
2	0	0	1	0	8,062086824219988E+004	1,3426946E+000	1,3421657E+000	-4,916255967854466E-002	1,000000000000000E+000	-1,0673197E-001	41	-6,5984299E-005
2	0	0	1	0	8,112066372399672E+004	1,2427354E+000	1,2421875E+000	-3,761281515213338E-002	1,000000000000000E+000	-1,2803924E-001	41	-4,6722169E-005
2	0	0	1	0	8,162045950576232E+004	1,1427761E+000	1,1422281E+000	-3,338696055823227E-002	1,000000000000000E+000	-1,4553547E-001	41	-3,8135524E-005
2	0	0	1	0	8,212025508754351E+004	1,0428170E+000	1,0422612E+000	-3,555449518681053E-002	1,000000000000000E+000	-1,6256070E-001	41	-3,7057071E-005
2	0	0	1	0	8,261205517123250E+004	1,0555118E+000	1,0549648E+000	-1,003176480502141E-002	1,000000000000000E+000	-1,7569001E-001	41	-1,0583159E-005
2	1	0	1	0	8,311185255296971E+004	1,1554710E+000	1,1548834E+000	3,522120857856609E-004	1,000000000000000E+000	-1,7755881E-001	43	4,0676389E-007
2	1	0	1	0	8,361164943478815E+004	1,2554303E+000	1,2547771E+000	4,675089065599047E-003	1,000000000000000E+000	-1,7617565E-001	42	5,8661944E-006
2	1	0	1	0	8,411144671652711E+004	1,3553894E+000	1,3547219E+000	7,588112742722888E-003	1,000000000000000E+000	-1,7304379E-001	42	1,0279782E-005
2	1	0	1	0	8,461124339833518E+004	1,4553488E+000	1,4547772E+000	1,018622967104460E-002	1,000000000000000E+000	-1,6858757E-001	41	1,4818695E-005
2	1	0	1	0	8,511104078008991E+004	1,5553080E+000	1,5547019E+000	1,434775770636204E-002	1,000000000000000E+000	-1,6263892E-001	41	2,2306487E-005
2	1	0	1	0	8,561083766188112E+004	1,6552672E+000	1,6546210E+000	7,662263565081412E-002	1,000000000000000E+000	-1,4179571E-001	41	1,2678142E-004
2	1	0	1	0	8,611063524365262E+004	1,7552264E+000	1,7546210E+000	6,692146617963568E-002	1,000000000000000E+000	-1,0262854E-001	41	1,1742181E-004
2	1	0	1	0	8,661043222542689E+004	1,8551855E+000	1,8545903E+000	4,259348275387603E-002	1,000000000000000E+000	-7,5644799E-002	41	7,8993457E-005
2	1	0	1	0	8,711022960721562E+004	1,9551449E+000	1,9545612E+000	2,699003769458905E-002	1,000000000000000E+000	-5,8554478E-002	41	5,2753683E-005
2	1	0	1	0	8,761002708897321E+004	2,0551038E+000	2,0545404E+000	1,792127047513412E-002	1,000000000000000E+000	-4,7510713E-002	41	3,6819973E-005
2	1	0	1	0	8,810982437077770E+004	2,1550634E+000	2,1545136E+000	1,211619803327813E-002	1,000000000000000E+000	-4,0075779E-002	41	2,6104513E-005
2	1	0	1	0	8,860962135251914E+004	2,2550223E+000	2,2544415E+000	8,889268370361567E-003	1,000000000000000E+000	-3,4905225E-002	41	2,0040336E-005
2	1	0	1	0	8,910941873433697E+004	2,3549817E+000	2,3544195E+000	7,330147439341315E-003	1,000000000000000E+000	-3,0877361E-002	41	1,7258242E-005
2	1	0	1	0	8,960921621607291E+004	2,4549408E+000	2,4543910E+000	6,731446215139464E-003	1,000000000000000E+000	-2,7365280E-002	41	1,6521601E-005
2	1	0	1	0	9,010901289788773E+004	2,5548999E+000	2,5543261E+000	6,391650939175850E-003	1,000000000000000E+000	-2,4048703E-002	41	1,6326361E-005
2	1	0	1	0	9,060880977963610E+004	2,6548591E+000	2,6543245E+000	6,214972965940632E-003	1,000000000000000E+000	-2,0894129E-002	41	1,6496555E-005
2	1	0	1	1	9,110210926295936E+004	2,6464627E+000	2,6459146E+000	1,231901371014693E-003	2,000000000000000E+000	-1,8790027E-002	42	3,2595058E-006
2	0	0	1	1	9,160190374474856E+004	2,5465038E+000	2,5460024E+000	-4,114486239588616E-004	2,000000000000000E+000	-1,8698841E-002	43	-1,0475492E-006
2	0	0	1	1	9,210169752650824E+004	2,4465442E+000	2,4459984E+000	-1,114727007250640E-003	2,000000000000000E+000	-1,9124780E-002	42	-2,7266206E-006
2	0	0	1	1	9,260149210831360E+004	2,3465850E+000	2,3460641E+000	-1,600284522350007E-003	2,000000000000000E+000	-1,9836888E-002	42	-3,7543700E-006
2	0	0	1	1	9,310128579005529E+004	2,2466257E+000	2,2460697E+000	-2,171874672980752E-003	2,000000000000000E+000	-2,0804115E-002	42	-4,8781817E-006
[...]
2	0	0	1	1	9,610005638073757E+004	1,6468705E+000	1,6463102E+000	-2,046935254912593E-002	2,000000000000000E+000	-4,5139804E-002	41	-3,3698903E-005
2	0	0	1	1	9,659985206251970E+004	1,5469115E+000	1,5463594E+000	-4,570303582337987E-002	2,000000000000000E+000	-5,9894726E-002	41	-7,0673319E-005
2	0	0	1	1	9,709964764430112E+004	1,4469521E+000	1,4464531E+000	-8,875171029616613E-002	2,000000000000000E+000	-9,9137343E-002	41	-1,2837519E-004
2	0	0	1	1	9,759944342606550E+004	1,3469929E+000	1,3464381E+000	-5,318252029629442E-002	2,000000000000000E+000	-1,3350208E-001	41	-7,1606970E-005
2	0	0	1	1	9,809923860786459E+004	1,2470337E+000	1,2464639E+000	-3,774932152626320E-002	2,000000000000000E+000	-1,5570544E-001	41	-4,7053167E-005
2	0	0	1	1	9,859903438961320E+004	1,1470745E+000	1,1464888E+000	-3,247309131443060E-002	2,000000000000000E+000	-1,7295574E-001	41	-3,7230035E-005
2	0	0	1	1	9,909882997142710E+004	1,0471152E+000	1,0465196E+000	-3,482674550302589E-002	2,000000000000000E+000	-1,8951261E-001	41	-3,6446872E-005
2	0	0	1	1	9,959212965470902E+004	1,0515133E+000	1,0508809E+000	-8,379569652290503E-003	2,000000000000000E+000	-2,0259093E-001	41	-8,8059296E-006
2	1	0	1	1	1,000919270365057E+005	1,1514727E+000	1,1508458E+000	2,271915516103496E-003	2,000000000000000E+000	-2,0349845E-001	42	2,6146245E-006
2	1	0	1	1	1,005917239182713E+005	1,2514318E+000	1,2507591E+000	6,320060390851159E-003	2,000000000000000E+000	-2,0121865E-001	42	7,9048732E-006
2	1	0	1	1	1,010915209000523E+005	1,3513911E+000	1,3506985E+000	8,980185656118619E-003	2,000000000000000E+000	-1,9733253E-001	42	1,2129523E-005
2	1	0	1	1	1,015913177818351E+005	1,4513503E+000	1,4507281E+000	1,150100005332860E-002	2,000000000000000E+000	-1,9219135E-001	41	1,6684824E-005
2	1	0	1	1	1,020911152635987E+005	1,5513096E+000	1,5506840E+000	1,572496274581377E-002	2,000000000000000E+000	-1,8558674E-001	41	2,4384448E-005
2	1	0	1	1	1,025909121453979E+005	1,6512690E+000	1,6505585E+000	9,332582476197193E-002	2,000000000000000E+000	-1,6102253E-001	41	1,5403974E-004
2	1	0	1	1	1,030907097271455E+005	1,7512280E+000	1,7505457E+000	7,263343064939373E-002	2,000000000000000E+000	-1,1557945E-001	41	1,2714815E-004
2	1	0	1	1	1,035905066089600E+005	1,8511873E+000	1,8505636E+000	4,141681728083679E-002	2,000000000000000E+000	-8,7764129E-002	41	7,6644457E-005
2	1	0	1	1	1,040903037906965E+005	1,9511467E+000	1,9505543E+000	2,462719764013399E-002	2,000000000000000E+000	-7,1783476E-002	41	4,8036683E-005
2	1	0	1	1	1,045901012725145E+005	2,0511055E+000	2,0505366E+000	1,579508050462330E-002	2,000000000000000E+000	-6,1830126E-002	41	3,2388391E-005
2	1	0	1	1	1,050898991542563E+005	2,1510649E+000	2,1505055E+000	1,080135285346789E-002	2,000000000000000E+000	-5,5253953E-002	41	2,3228369E-005
2	1	0	1	1	1,055896954360605E+005	2,2510240E+000	2,2504425E+000	8,297724470375731E-003	2,000000000000000E+000	-5,0522588E-002	41	1,8673552E-005
2	1	0	1	1	1,060894934178195E+005	2,3509831E+000	2,3504224E+000	6,999778373306648E-003	2,000000000000000E+000	-4,6710897E-002	41	1,6452435E-005
2	1	0	1	1	1,065892897996076E+005	2,4509425E+000	2,4503622E+000	6,533503390241252E-003	2,000000000000000E+000	-4,3330938E-002	41	1,6009450E-005
2	1	0	1	1	1,070890876813822E+005	2,5509019E+000	2,5503180E+000	6,223349036188916E-003	2,000000000000000E+000	-4,0097047E-002	41	1,5871519E-005
2	1	0	1	1	1,075888839631537E+005	2,6508608E+000	2,6502800E+000	6,121489885930920E-003	2,000000000000000E+000	-3,7009161E-002	41	1,6223663E-005
2	1	0	0	0	1,080429767557423E+005	2,7417748E+000	2,7411919E+000	6,895597480858363E-003	2,000000000000000E+000	-3,4113195E-002	41	1,8902156E-005

File: CV_LTO_Al_grafite_01_1mVs_04_CV_C03.mpt
EC-Lab ASCII FILE
Nb header lines : 57

Cyclic Voltammetry

Run on channel : 3 (SN 6807)
User :
Electrode connection : standard
Ewe ctrl range : min = 0,00 V, max = 5,00 V
Ewe,I filtering : 50 kHz
Safety Limits :
	Do not start on E overload
Channel : Grounded
Acquisition started on : 11/04/2020 18:19:46
Saved on :
	File : CV_LTO_Al_grafite_01_1mVs_04_CV_C03.mpr
	Directory : C:\Users\labsuperfici\Desktop\Biologic\Users\Prisca Viviani\201104\
	Host : 10.78.33.0
Device : VSP-300 (SN 0638)
Address : USB
EC-Lab for windows v11.31 (software)
Internet server v11.30 (firmware)
Command interpretor v11.31 (firmware)
Electrode material :
Initial state :
Electrolyte :
Comments :
Cable : standard
Reference electrode : SCE Saturated Calomel Electrode (0,241 V)
Electrode surface area : 0,001 cm²
Characteristic mass : 0,001 g
Equivalent Weight : 0,000 g/eq.
Density : 0,000 g/cm3
Cycle Definition : Charge/Discharge alternance
Ei (V)              0,000
vs.                 Eoc
dE/dt               0,300
dE/dt unit          mV/s
E1 (V)              1,000
vs.                 Ref
Step percent        50
N                   10
E range min (V)     0,000
E range max (V)     5,000
I Range             Auto
I Range min         Unset
I Range max         Unset
I Range init        Unset
Bandwidth           8
E2 (V)              2,700
vs.                 Ref
nc cycles           1
Reverse Scan        1
Ef (V)              0,000
vs.                 Eoc

mode	ox/red	error	control changes	counter inc.	time/s	control/V	Ewe/V	<I>/mA	cycle number	(Q-Qo)/C	I Range	P/W
2	1	0	0	0	1,080434093556392E+005	2,7417748E+000	2,7411003E+000	6,880420260131359E-003	1,000000000000000E+000	0,0000000E+000	42	1,8859922E-005
2	0	0	1	0	1,083754401770886E+005	2,6421647E+000	2,6416421E+000	-1,741818839957216E-004	1,000000000000000E+000	4,7878109E-004	43	-4,6012619E-007
2	0	0	1	0	1,087086368983034E+005	2,5422053E+000	2,5416927E+000	-1,335645702076603E-003	1,000000000000000E+000	1,8118585E-004	42	-3,3948011E-006
2	0	0	1	0	1,090418337194806E+005	2,4422460E+000	2,4416919E+000	-2,070559929140365E-003	1,000000000000000E+000	-4,1439780E-004	42	-5,0556691E-006
2	0	0	1	0	1,093750305406381E+005	2,3422868E+000	2,3417838E+000	-2,688889239076932E-003	1,000000000000000E+000	-1,2257238E-003	42	-6,2967970E-006
2	0	0	1	0	1,097082271618508E+005	2,2423275E+000	2,2417924E+000	-3,453380112293389E-003	1,000000000000000E+000	-2,2599129E-003	42	-7,7417617E-006
2	0	0	1	0	1,100414241830448E+005	2,1423683E+000	2,1418490E+000	-4,727762803191524E-003	1,000000000000000E+000	-3,6280353E-003	42	-1,0126154E-005
2	0	0	1	0	1,103746208042004E+005	2,0424089E+000	2,0419271E+000	-6,832526175368593E-003	1,000000000000000E+000	-5,5498928E-003	42	-1,3951520E-005
2	0	0	1	0	1,107078180253976E+005	1,9424500E+000	1,9418645E+000	-1,011287810243401E-002	1,000000000000000E+000	-8,3504831E-003	41	-1,9637839E-005
2	0	0	1	0	1,110410154466083E+005	1,8424907E+000	1,8419108E+000	-1,451305371260249E-002	1,000000000000000E+000	-1,2435289E-002	41	-2,6731750E-005
2	0	0	1	0	1,113742128677645E+005	1,7425314E+000	1,7419569E+000	-2,039371425165374E-002	1,000000000000000E+000	-1,8216757E-002	41	-3,5524972E-005
2	0	0	1	0	1,117074102889453E+005	1,6425724E+000	1,6420320E+000	-2,979011651651766E-002	1,000000000000000E+000	-2,6407601E-002	41	-4,8916325E-005
2	0	0	1	0	1,120406077101597E+005	1,5426130E+000	1,5420943E+000	-6,059670683831353E-002	1,000000000000000E+000	-4,0229052E-002	41	-9,3445837E-005
2	0	0	1	0	1,123738051313271E+005	1,4426539E+000	1,4420712E+000	-1,213525266081832E-001	1,000000000000000E+000	-7,3216371E-002	40	-1,7499899E-004
2	0	0	1	0	1,127070025524925E+005	1,3426946E+000	1,3421260E+000	-8,294826859908633E-002	1,000000000000000E+000	-1,0747869E-001	40	-1,1132703E-004
2	0	0	1	0	1,130401999737064E+005	1,2427354E+000	1,2421176E+000	-6,031934398599792E-002	1,000000000000000E+000	-1,3092417E-001	40	-7,4923722E-005
2	0	0	1	0	1,133733973948905E+005	1,1427761E+000	1,1421614E+000	-5,016192612287940E-002	1,000000000000000E+000	-1,4907975E-001	40	-5,7293015E-005
2	0	0	1	0	1,137069278159644E+005	1,0427171E+000	1,0421461E+000	-4,880289135040206E-002	1,000000000000000E+000	-1,6537493E-001	41	-5,0859740E-005
2	0	0	1	0	1,140344618385044E+005	1,0555117E+000	1,0549139E+000	-9,285772471680331E-003	1,000000000000000E+000	-1,7661449E-001	41	-9,7956899E-006
2	1	0	1	0	1,143676600597189E+005	1,1554711E+000	1,1548188E+000	4,758738422535260E-003	1,000000000000000E+000	-1,7682332E-001	42	5,4954803E-006
2	1	0	1	0	1,147008582808785E+005	1,2554302E+000	1,2547462E+000	9,778169677615023E-003	1,000000000000000E+000	-1,7428619E-001	42	1,2269121E-005
2	1	0	1	0	1,150340561020504E+005	1,3553896E+000	1,3547474E+000	1,312791385563349E-002	1,000000000000000E+000	-1,7042986E-001	41	1,7785007E-005
2	1	0	1	0	1,153672541232652E+005	1,4553486E+000	1,4547178E+000	1,655256016285062E-002	1,000000000000000E+000	-1,6548799E-001	41	2,4079303E-005
2	1	0	1	0	1,157004523444418E+005	1,5553079E+000	1,5546529E+000	2,252153576711180E-002	1,000000000000000E+000	-1,5915342E-001	41	3,5013170E-005
2	1	0	1	0	1,160336501656000E+005	1,6552670E+000	1,6546597E+000	1,121789762417125E-001	1,000000000000000E+000	-1,3933581E-001	40	1,8561803E-004
2	1	0	1	0	1,163668485868117E+005	1,7552265E+000	1,7546072E+000	1,155074132178850E-001	1,000000000000000E+000	-9,7383976E-002	40	2,0267014E-004
2	1	0	1	0	1,167000468080051E+005	1,8551855E+000	1,8545642E+000	7,101686375923105E-002	1,000000000000000E+000	-6,6683635E-002	40	1,3170534E-004
2	1	0	1	0	1,170332446291605E+005	1,9551449E+000	1,9545075E+000	4,187315744100617E-002	1,000000000000000E+000	-4,8332900E-002	41	8,1841397E-005
2	1	0	1	0	1,173664432503579E+005	2,0551038E+000	2,0544851E+000	2,605367559219157E-002	1,000000000000000E+000	-3,7261717E-002	41	5,3526888E-005
2	1	0	1	0	1,176996414715676E+005	2,1550634E+000	2,1544836E+000	1,731961609699743E-002	1,000000000000000E+000	-3,0158920E-002	41	3,7314829E-005
2	1	0	1	0	1,180328392927223E+005	2,2550223E+000	2,2543995E+000	1,270857616247653E-002	1,000000000000000E+000	-2,5222354E-002	41	2,8650209E-005
2	1	0	1	0	1,183660375139040E+005	2,3549817E+000	2,3543894E+000	1,039635855100192E-002	1,000000000000000E+000	-2,1399491E-002	41	2,4477076E-005
2	1	0	1	0	1,186992361351192E+005	2,4549408E+000	2,4543550E+000	9,502611110484329E-003	1,000000000000000E+000	-1,8090721E-002	41	2,3322782E-005
2	1	0	1	0	1,190324335562857E+005	2,5548999E+000	2,5543337E+000	8,997248718438794E-003	1,000000000000000E+000	-1,4975897E-002	41	2,2981976E-005
2	1	0	1	0	1,193656317774506E+005	2,6548595E+000	2,6543083E+000	8,602933130510186E-003	1,000000000000000E+000	-1,2049173E-002	41	2,2834836E-005
2	1	0	1	1	1,196944982996810E+005	2,6464627E+000	2,6458919E+000	1,557845401207174E-003	2,000000000000000E+000	-1,0135072E-002	42	4,1218905E-006
2	0	0	1	1	1,200283613207216E+005	2,5463035E+000	2,5458498E+000	-8,212661662772864E-004	2,000000000000000E+000	-1,0112409E-002	43	-2,0908203E-006
2	0	0	1	1	1,203615583418757E+005	2,4463441E+000	2,4458323E+000	-1,750986491914769E-003	2,000000000000000E+000	-1,0575528E-002	42	-4,2826191E-006
2	0	0	1	1	1,206947549630709E+005	2,3463850E+000	2,3458595E+000	-2,439296959819925E-003	2,000000000000000E+000	-1,1294949E-002	42	-5,7222478E-006
2	0	0	1	1	1,210279515842823E+005	2,2464259E+000	2,2459071E+000	-3,231677014217836E-003	2,000000000000000E+000	-1,2249079E-002	42	-7,2580460E-006
[...]
2	0	0	1	1	1,230271347113813E+005	1,6466706E+000	1,6460979E+000	-2,931816819513039E-002	2,000000000000000E+000	-3,5886731E-002	41	-4,8260576E-005
2	0	0	1	1	1,233603321325672E+005	1,5467114E+000	1,5461618E+000	-5,851524637179034E-002	2,000000000000000E+000	-4,9397442E-002	41	-9,0474037E-005
2	0	0	1	1	1,236935295537220E+005	1,4467521E+000	1,4461555E+000	-1,230753703808358E-001	2,000000000000000E+000	-8,1772447E-002	40	-1,7798613E-004
2	0	0	1	1	1,240267269749280E+005	1,3467931E+000	1,3461597E+000	-8,465221782605248E-002	2,000000000000000E+000	-1,1695851E-001	40	-1,1395540E-004
2	0	0	1	1	1,243599241961318E+005	1,2468337E+000	1,2462320E+000	-5,999089670079638E-002	2,000000000000000E+000	-1,4058198E-001	40	-7,4762575E-005
2	0	0	1	1	1,246931216172865E+005	1,1468747E+000	1,1462611E+000	-4,888863069784932E-002	2,000000000000000E+000	-1,5846708E-001	40	-5,6039135E-005
2	0	0	1	1	1,250266522383965E+005	1,0468154E+000	1,0462227E+000	-4,679339052205875E-002	2,000000000000000E+000	-1,7419763E-001	41	-4,8956306E-005
2	0	0	1	1	1,253545196608626E+005	1,0515134E+000	1,0508771E+000	-8,571068788081299E-003	2,000000000000000E+000	-1,8531060E-001	41	-9,0071399E-006
2	1	0	1	1	1,256877178820402E+005	1,1514728E+000	1,1507905E+000	5,617113614970415E-003	2,000000000000000E+000	-1,8520729E-001	42	6,4641208E-006
2	1	0	1	1	1,260209161031982E+005	1,2514319E+000	1,2508094E+000	1,030563025203819E-002	2,000000000000000E+000	-1,8243590E-001	41	1,2890379E-005
2	1	0	1	1	1,263541137244089E+005	1,3513910E+000	1,3507465E+000	1,329230727674163E-002	2,000000000000000E+000	-1,7846842E-001	41	1,7954537E-005
2	1	0	1	1	1,266873119456040E+005	1,4513503E+000	1,4507333E+000	1,652849887014818E-002	2,000000000000000E+000	-1,7350134E-001	41	2,3978444E-005
2	1	0	1	1	1,270205101667587E+005	1,5513093E+000	1,5506641E+000	2,205295622722758E-002	2,000000000000000E+000	-1,6722059E-001	41	3,4196728E-005
2	1	0	1	1	1,273537079879553E+005	1,6512688E+000	1,6506699E+000	1,075690937117764E-001	2,000000000000000E+000	-1,4882024E-001	40	1,7756107E-004
2	1	0	1	1	1,276869064091659E+005	1,7512280E+000	1,7506080E+000	1,200442491541758E-001	2,000000000000000E+000	-1,0679029E-001	40	2,1015042E-004
2	1	0	1	1	1,280201046303213E+005	1,8511873E+000	1,8505701E+000	7,336620455602327E-002	2,000000000000000E+000	-7,4881181E-002	40	1,3576930E-004
2	1	0	1	1	1,283536354514223E+005	1,9512464E+000	1,9506214E+000	4,303697179519062E-002	2,000000000000000E+000	-5,5960827E-002	41	8,3948835E-005
2	1	0	1	1	1,286868342726361E+005	2,0512054E+000	2,0505888E+000	2,663323714420907E-002	2,000000000000000E+000	-4,4614222E-002	41	5,4613818E-005
2	1	0	1	1	1,290200324938035E+005	2,1511648E+000	2,1505618E+000	1,758070904082076E-002	2,000000000000000E+000	-3,7375912E-002	41	3,7808401E-005
2	1	0	1	1	1,293532303149686E+005	2,2511237E+000	2,2505126E+000	1,275523546446888E-002	2,000000000000000E+000	-3,2385945E-002	41	2,8705817E-005
2	1	0	1	1	1,296864285361827E+005	2,3510833E+000	2,3504925E+000	1,031655136408283E-002	2,000000000000000E+000	-2,8568763E-002	41	2,4248977E-005
2	1	0	1	1	1,300196267573667E+005	2,4510424E+000	2,4504426E+000	9,446746921794397E-003	2,000000000000000E+000	-2,5286729E-002	41	2,3148710E-005
2	1	0	1	1	1,303528245785211E+005	2,5510015E+000	2,5503919E+000	8,905832017662985E-003	2,000000000000000E+000	-2,2196939E-002	41	2,2713362E-005
2	1	0	1	1	1,306860227997293E+005	2,6509609E+000	2,6503701E+000	8,591898408969734E-003	2,000000000000000E+000	-1,9286508E-002	41	2,2771710E-005
2	1	0	0	0	1,309884177281752E+005	2,7417748E+000	2,7411652E+000	9,494423265813984E-003	2,000000000000000E+000	-1,6602650E-002	41	2,6025782E-005