Folder: Randles-Sevcik/Dati/201104

File: CV_LTO_Al_grafite_01_1mVs_02_CV_C03.mpt
EC-Lab ASCII FILE
Nb header lines : 57

Cyclic Voltammetry

Run on channel : 3 (SN 6807)
User :
Electrode connection : standard
Ewe ctrl range : min = 0,00 V, max = 5,00 V
Ewe,I filtering : 50 kHz
Safety Limits :
	Do not start on E overload
Channel : Grounded
Acquisition started on : 11/04/2020 18:19:46
Saved on :
	File : CV_LTO_Al_grafite_01_1mVs_02_CV_C03.mpr
	Directory : C:\Users\labsuperfici\Desktop\Biologic\Users\Prisca Viviani\201104\
	Host : 10.78.33.0
Device : VSP-300 (SN 0638)
Address : USB
EC-Lab for windows v11.31 (software)
Internet server v11.30 (firmware)
Command interpretor v11.31 (firmware)
Electrode material :
Initial state :
Electrolyte :
Comments :
Cable : standard
Reference electrode : SCE Saturated Calomel Electrode (0,241 V)
Electrode surface area : 0,001 cm²
Characteristic mass : 0,001 g
Equivalent Weight : 0,000 g/eq.
Density : 0,000 g/cm3
Cycle Definition : Charge/Discharge alternance
Ei (V)              0,000
vs.                 Eoc
dE/dt               0,100
dE/dt unit          mV/s
E1 (V)              1,000
vs.                 Ref
Step percent        50
N                   10
E range min (V)     0,000
E range max (V)     5,000
I Range             Auto
I Range min         Unset
I Range max         Unset
I Range init        Unset
Bandwidth           8
E2 (V)              2,700
vs.                 Ref
nc cycles           1
Reverse Scan        1
Ef (V)              0,000
vs.                 Eoc

mode	ox/red	error	control changes	counter inc.	time/s	control/V	Ewe/V	<I>/mA	cycle number	(Q-Qo)/C	I Range	P/W
2	0	0	0	0	4,790049888123336E+003	2,7417748E+000	2,7412376E+000	-4,986440762877464E-004	1,000000000000000E+000	0,0000000E+000	42	-1,3669019E-006
2	0	0	1	0	5,785135776075636E+003	2,6422646E+000	2,6417477E+000	-6,733426540893889E-004	1,000000000000000E+000	-5,9688656E-004	43	-1,7788014E-006
2	0	0	1	0	6,784718363973494E+003	2,5423052E+000	2,5417099E+000	-9,256386696058980E-004	1,000000000000000E+000	-1,4655695E-003	42	-2,3527050E-006
2	0	0	1	0	7,784300651871381E+003	2,4423461E+000	2,4417593E+000	-1,185229528256175E-003	1,000000000000000E+000	-2,5971057E-003	42	-2,8940453E-006
2	0	0	1	0	8,783884439769201E+003	2,3423867E+000	2,3418176E+000	-1,540320622670472E-003	1,000000000000000E+000	-4,0322118E-003	42	-3,6071499E-006
2	0	0	1	0	9,783465827667074E+003	2,2424276E+000	2,2418418E+000	-2,092546939932299E-003	1,000000000000000E+000	-5,8988421E-003	42	-4,6911591E-006
2	0	0	1	0	1,078304961556492E+004	2,1424685E+000	2,1418998E+000	-2,956828271478286E-003	1,000000000000000E+000	-8,4702643E-003	42	-6,3332300E-006
2	0	0	1	0	1,178263100346280E+004	2,0425093E+000	2,0419619E+000	-4,351944108377824E-003	1,000000000000000E+000	-1,2159053E-002	42	-8,8865045E-006
2	0	0	1	0	1,278221709136065E+004	1,9425501E+000	1,9419990E+000	-6,184109586347124E-003	1,000000000000000E+000	-1,7490655E-002	42	-1,2009535E-005
2	0	0	1	0	1,378180557925840E+004	1,8425907E+000	1,8420681E+000	-8,111252698937588E-003	1,000000000000000E+000	-2,4705587E-002	42	-1,4941480E-005
2	0	0	1	0	1,478139416715619E+004	1,7426316E+000	1,7420028E+000	-1,075691770986861E-002	1,000000000000000E+000	-3,4121115E-002	41	-1,8738581E-005
2	0	0	1	0	1,578098325505397E+004	1,6426721E+000	1,6420674E+000	-1,483130694915749E-002	1,000000000000000E+000	-4,6786644E-002	41	-2,4354005E-005
2	0	0	1	0	1,678057114295173E+004	1,5427132E+000	1,5421294E+000	-3,969072905467703E-002	1,000000000000000E+000	-6,8400554E-002	41	-6,1208237E-005
2	0	0	1	0	1,778015973084955E+004	1,4427539E+000	1,4421730E+000	-4,085626570420309E-002	1,000000000000000E+000	-1,2951027E-001	41	-5,8921803E-005
2	0	0	1	0	1,877974821874735E+004	1,3427947E+000	1,3421818E+000	-3,076470046114246E-002	1,000000000000000E+000	-1,6249909E-001	41	-4,1291820E-005
2	0	0	1	0	1,977933670664509E+004	1,2428354E+000	1,2422218E+000	-3,701925776080761E-002	1,000000000000000E+000	-1,9615176E-001	41	-4,5986129E-005
2	0	0	1	0	2,077892529454292E+004	1,1428761E+000	1,1422803E+000	-3,793156682737731E-002	1,000000000000000E+000	-2,3429397E-001	41	-4,3328484E-005
2	0	0	1	0	2,177851318244071E+004	1,0429169E+000	1,0423135E+000	-3,771544682460015E-002	1,000000000000000E+000	-2,7192739E-001	41	-3,9311319E-005
2	0	0	1	0	2,276311207051994E+004	1,0555117E+000	1,0548940E+000	-1,133184010340899E-002	1,000000000000000E+000	-2,9942915E-001	41	-1,1953890E-005
2	0	0	1	0	2,376270655841770E+004	1,1554711E+000	1,1548687E+000	-2,107326739332678E-003	1,000000000000000E+000	-3,0501080E-001	42	-2,4336857E-006
2	1	0	1	0	2,476230104631544E+004	1,2554302E+000	1,2547684E+000	9,352045525605887E-004	1,000000000000000E+000	-3,0535904E-001	42	1,1734651E-006
2	1	0	1	0	2,576189553421322E+004	1,3553895E+000	1,3547024E+000	2,856355011439674E-003	1,000000000000000E+000	-3,0334526E-001	42	3,8695107E-006
2	1	0	1	0	2,676148942211090E+004	1,4553486E+000	1,4546541E+000	4,528796258333911E-003	1,000000000000000E+000	-2,9958332E-001	42	6,5878321E-006
2	1	0	1	0	2,776108391000858E+004	1,5553079E+000	1,5545557E+000	7,506334366098308E-003	1,000000000000000E+000	-2,9386917E-001	42	1,1669014E-005
2	1	0	1	0	2,876067839790636E+004	1,6552671E+000	1,6545969E+000	4,226315131619340E-002	1,000000000000000E+000	-2,5739741E-001	41	6,9928479E-005
2	1	0	1	0	2,976027348580401E+004	1,7552265E+000	1,7546163E+000	2,138436139497379E-002	1,000000000000000E+000	-2,2876053E-001	41	3,7521349E-005
2	1	0	1	0	3,075986797370180E+004	1,8551856E+000	1,8545583E+000	1,510381562834129E-002	1,000000000000000E+000	-2,1083473E-001	41	2,8010907E-005
2	1	0	1	0	3,175946246159944E+004	1,9551450E+000	1,9545130E+000	1,106236033825420E-002	1,000000000000000E+000	-1,9772208E-001	41	2,1621527E-005
2	1	0	1	0	3,275905694949720E+004	2,0551038E+000	2,0544844E+000	7,630318796590208E-003	1,000000000000000E+000	-1,8847033E-001	41	1,5676371E-005
2	1	0	1	0	3,375865145123430E+004	2,1550629E+000	2,1544712E+000	5,883499243220111E-003	1,000000000000000E+000	-1,8174116E-001	41	1,2675830E-005
2	1	0	1	0	3,475924615309795E+004	2,2551227E+000	2,2544715E+000	4,851743955228839E-003	1,000000000000000E+000	-1,7635942E-001	42	1,0938119E-005
2	1	0	1	0	3,575884055495990E+004	2,3550813E+000	2,3544495E+000	4,242474610216734E-003	1,000000000000000E+000	-1,7177148E-001	42	9,9886920E-006
2	1	0	1	0	3,675843505682168E+004	2,4550405E+000	2,4544153E+000	3,922035359127218E-003	1,000000000000000E+000	-1,6764624E-001	42	9,6263038E-006
2	1	0	1	0	3,775802955868375E+004	2,5549998E+000	2,5543995E+000	3,805949318954800E-003	1,000000000000000E+000	-1,6372597E-001	42	9,7219154E-006
2	1	0	1	0	3,875762406054564E+004	2,6549590E+000	2,6543477E+000	3,790816942369098E-003	1,000000000000000E+000	-1,5988135E-001	42	1,0062146E-005
2	1	0	1	1	3,974322046238137E+004	2,6464629E+000	2,6458790E+000	8,716808522196942E-004	2,000000000000000E+000	-1,5718244E-001	42	2,3063621E-006
2	0	0	1	1	4,074280306424317E+004	2,5465035E+000	2,5459316E+000	-1,639365767689242E-004	2,000000000000000E+000	-1,5699869E-001	43	-4,1737130E-007
2	0	0	1	1	4,174238556610525E+004	2,4465442E+000	2,4460270E+000	-5,719424156022100E-004	2,000000000000000E+000	-1,5742883E-001	43	-1,3989866E-006
2	0	0	1	1	4,274196816796693E+004	2,3465850E+000	2,3460412E+000	-8,545768098457626E-004	2,000000000000000E+000	-1,5819898E-001	42	-2,0048724E-006
2	0	0	1	1	4,374155076982878E+004	2,2466257E+000	2,2460403E+000	-1,164738899643606E-003	2,000000000000000E+000	-1,5926251E-001	42	-2,6160506E-006
[...]
2	0	0	1	1	4,973906708100019E+004	1,6468705E+000	1,6462282E+000	-1,135676429840561E-002	2,000000000000000E+000	-1,8624668E-001	41	-1,8695826E-005
2	0	0	1	1	5,073865558286197E+004	1,5469114E+000	1,5463020E+000	-3,617336746023936E-002	2,000000000000000E+000	-2,0453878E-001	41	-5,5934950E-005
2	0	0	1	1	5,173824418472394E+004	1,4469521E+000	1,4463797E+000	-3,575722104460732E-002	2,000000000000000E+000	-2,5399822E-001	41	-5,1718518E-005
2	0	0	1	1	5,273783268658584E+004	1,3469929E+000	1,3463801E+000	-2,207631875515970E-002	2,000000000000000E+000	-2,8203788E-001	41	-2,9723116E-005
2	0	0	1	1	5,373742058844760E+004	1,2470336E+000	1,2464740E+000	-1,581228817969993E-002	2,000000000000000E+000	-2,9982421E-001	41	-1,9709607E-005
2	0	0	1	1	5,473700919030956E+004	1,1470745E+000	1,1465178E+000	-1,693470752578319E-002	2,000000000000000E+000	-3,1591088E-001	41	-1,9415942E-005
2	0	0	1	1	5,573659769217129E+004	1,0471151E+000	1,0465406E+000	-2,086244304027546E-002	2,000000000000000E+000	-3,3470830E-001	41	-2,1833393E-005
2	0	0	1	1	5,672319569400907E+004	1,0515134E+000	1,0509423E+000	-6,742361262909460E-003	2,000000000000000E+000	-3,5128215E-001	41	-7,0858327E-006
2	0	0	1	1	5,772279019587091E+004	1,1514726E+000	1,1509551E+000	-6,203388766192501E-004	2,000000000000000E+000	-3,5420704E-001	43	-7,1398216E-007
2	1	0	1	1	5,872238469773275E+004	1,2514319E+000	1,2508209E+000	1,924202708069693E-003	2,000000000000000E+000	-3,5345718E-001	42	2,4068329E-006
2	1	0	1	1	5,972197859959467E+004	1,3513912E+000	1,3507735E+000	3,750237645015706E-003	2,000000000000000E+000	-3,5047269E-001	42	5,0657213E-006
2	1	0	1	1	6,072157310145663E+004	1,4513502E+000	1,4506888E+000	5,401024285678541E-003	2,000000000000000E+000	-3,4587154E-001	42	7,8352059E-006
2	1	0	1	1	6,172116760331852E+004	1,5513096E+000	1,5506328E+000	7,501910813699053E-003	2,000000000000000E+000	-3,3965662E-001	42	1,1632709E-005
2	1	0	1	1	6,272076210518042E+004	1,6512686E+000	1,6506438E+000	4,956266983900870E-002	2,000000000000000E+000	-3,0948359E-001	41	8,1810314E-005
2	1	0	1	1	6,372035720704217E+004	1,7512279E+000	1,7506171E+000	2,951077158463100E-002	2,000000000000000E+000	-2,7146038E-001	41	5,1662064E-005
2	1	0	1	1	6,471995160890417E+004	1,8511872E+000	1,8505940E+000	1,858764182213984E-002	2,000000000000000E+000	-2,4813348E-001	41	3,4398181E-005
2	1	0	1	1	6,571954556697689E+004	1,9511465E+000	1,9505816E+000	1,240548390034203E-002	2,000000000000000E+000	-2,3266940E-001	41	2,4197909E-005
2	1	0	1	1	6,671913973054034E+004	2,0511055E+000	2,0505486E+000	7,861450184640670E-003	2,000000000000000E+000	-2,2266346E-001	41	1,6120286E-005
2	1	0	1	1	6,771873529410176E+004	2,1510651E+000	2,1505344E+000	5,376915955450239E-003	2,000000000000000E+000	-2,1613361E-001	41	1,1563243E-005
2	1	0	1	1	6,871932845742692E+004	2,2511239E+000	2,2505190E+000	4,337708086697110E-003	2,000000000000000E+000	-2,1128403E-001	42	9,7620950E-006
2	1	0	1	1	6,971892272098811E+004	2,3510835E+000	2,3504939E+000	3,906656578537442E-003	2,000000000000000E+000	-2,0710821E-001	42	9,1825723E-006
2	1	0	1	1	7,071851698454272E+004	2,4510424E+000	2,4504683E+000	3,651476701033703E-003	2,000000000000000E+000	-2,0330898E-001	42	8,9478281E-006
2	1	0	1	1	7,171811124809599E+004	2,5510015E+000	2,5503902E+000	3,570280192177103E-003	2,000000000000000E+000	-1,9963652E-001	42	9,1056081E-006
2	1	0	1	1	7,271770551164309E+004	2,6509607E+000	2,6503882E+000	3,553937865646496E-003	2,000000000000000E+000	-1,9603702E-001	42	9,4193156E-006
2	1	0	1	0	7,362489009707235E+004	2,7417748E+000	2,7411575E+000	4,134544514511757E-003	2,000000000000000E+000	-1,9264172E-001	42	1,1333438E-005

File: CV_LTO_Al_grafite_01_1mVs_05_CV_C03.mpt
EC-Lab ASCII FILE
Nb header lines : 57

Cyclic Voltammetry

Run on channel : 3 (SN 6807)
User :
Electrode connection : standard
Ewe ctrl range : min = 0,00 V, max = 5,00 V
Ewe,I filtering : 50 kHz
Safety Limits :
	Do not start on E overload
Channel : Grounded
Acquisition started on : 11/04/2020 18:19:46
Saved on :
	File : CV_LTO_Al_grafite_01_1mVs_05_CV_C03.mpr
	Directory : C:\Users\labsuperfici\Desktop\Biologic\Users\Prisca Viviani\201104\
	Host : 10.78.33.0
Device : VSP-300 (SN 0638)
Address : USB
EC-Lab for windows v11.31 (software)
Internet server v11.30 (firmware)
Command interpretor v11.31 (firmware)
Electrode material :
Initial state :
Electrolyte :
Comments :
Cable : standard
Reference electrode : SCE Saturated Calomel Electrode (0,241 V)
Electrode surface area : 0,001 cm²
Characteristic mass : 0,001 g
Equivalent Weight : 0,000 g/eq.
Density : 0,000 g/cm3
Cycle Definition : Charge/Discharge alternance
Ei (V)              0,000
vs.                 Eoc
dE/dt               0,400
dE/dt unit          mV/s
E1 (V)              1,000
vs.                 Ref
Step percent        50
N                   10
E range min (V)     0,000
E range max (V)     5,000
I Range             Auto
I Range min         Unset
I Range max         Unset
I Range init        Unset
Bandwidth           8
E2 (V)              2,700
vs.                 Ref
nc cycles           1
Reverse Scan        1
Ef (V)              0,000
vs.                 Eoc

mode	ox/red	error	control changes	counter inc.	time/s	control/V	Ewe/V	<I>/mA	cycle number	(Q-Qo)/C	I Range	P/W
2	1	0	0	0	1,309887673280921E+005	2,7417748E+000	2,7411842E+000	9,793231263756752E-003	1,000000000000000E+000	0,0000000E+000	41	2,6845051E-005
2	0	0	1	0	1,312375408343473E+005	2,6422641E+000	2,6416881E+000	-1,443488706931041E-004	1,000000000000000E+000	5,1289384E-004	43	-3,8132470E-007
2	0	0	1	0	1,314874388734458E+005	2,5423050E+000	2,5417433E+000	-1,748998472632879E-003	1,000000000000000E+000	2,3088157E-004	42	-4,4455051E-006
2	0	0	1	0	1,317373365125456E+005	2,4423461E+000	2,4417679E+000	-2,706498899122146E-003	1,000000000000000E+000	-3,5007266E-004	42	-6,6086423E-006
2	0	0	1	0	1,319872347516449E+005	2,3423867E+000	2,3418684E+000	-3,493504282367263E-003	1,000000000000000E+000	-1,1422511E-003	42	-8,1813268E-006
2	0	0	1	0	1,322371322907442E+005	2,2424276E+000	2,2418613E+000	-4,518795327157214E-003	1,000000000000000E+000	-2,1547598E-003	42	-1,0130512E-005
2	0	0	1	0	1,324870305298440E+005	2,1424682E+000	2,1419225E+000	-6,249015136092474E-003	1,000000000000000E+000	-3,5018835E-003	42	-1,3384906E-005
2	0	0	1	0	1,327369281689427E+005	2,0425091E+000	2,0420074E+000	-9,070914835373506E-003	1,000000000000000E+000	-5,4090591E-003	42	-1,8522876E-005
2	0	0	1	0	1,329868264080432E+005	1,9425498E+000	1,9419279E+000	-1,339215471765232E-002	1,000000000000000E+000	-8,2033798E-003	41	-2,6006599E-005
2	0	0	1	0	1,332367242471413E+005	1,8425907E+000	1,8419582E+000	-1,929135393536699E-002	1,000000000000000E+000	-1,2276558E-002	41	-3,5533867E-005
2	0	0	1	0	1,334866221862426E+005	1,7426314E+000	1,7420501E+000	-2,706084216125839E-002	1,000000000000000E+000	-1,8037874E-002	41	-4,7141340E-005
2	0	0	1	0	1,337365203253399E+005	1,6426722E+000	1,6420991E+000	-3,955238084734491E-002	1,000000000000000E+000	-2,6191607E-002	41	-6,4948930E-005
2	0	0	1	0	1,339864181644418E+005	1,5427130E+000	1,5421679E+000	-7,889008313582857E-002	1,000000000000000E+000	-3,9864901E-002	41	-1,2166175E-004
2	0	0	1	0	1,342363159035388E+005	1,4427538E+000	1,4421412E+000	-1,609121363031987E-001	1,000000000000000E+000	-7,1843572E-002	40	-2,3205802E-004
2	0	0	1	0	1,344862138426406E+005	1,3427947E+000	1,3421780E+000	-1,132891170454323E-001	1,000000000000000E+000	-1,0691129E-001	40	-1,5205416E-004
2	0	0	1	0	1,347361118817383E+005	1,2428354E+000	1,2421739E+000	-8,035400030770523E-002	1,000000000000000E+000	-1,3061625E-001	40	-9,9813646E-005
2	0	0	1	0	1,349860098208394E+005	1,1428761E+000	1,1422449E+000	-6,518277062598665E-002	1,000000000000000E+000	-1,4853577E-001	40	-7,4454692E-005
2	0	0	1	0	1,352359073599376E+005	1,0429170E+000	1,0422517E+000	-6,211389218385863E-002	1,000000000000000E+000	-1,6424118E-001	40	-6,4738313E-005
2	0	0	1	0	1,354820578984525E+005	1,0555118E+000	1,0548891E+000	-9,474143478504816E-003	1,000000000000000E+000	-1,7471358E-001	41	-9,9941708E-006
2	1	0	1	0	1,357319561375496E+005	1,1554711E+000	1,1547967E+000	8,226281604489016E-003	1,000000000000000E+000	-1,7432879E-001	42	9,4996831E-006
2	1	0	1	0	1,359818544766512E+005	1,2554303E+000	1,2547357E+000	1,409446307844098E-002	1,000000000000000E+000	-1,7142515E-001	41	1,7684826E-005
2	1	0	1	0	1,362317527157487E+005	1,3553895E+000	1,3546942E+000	1,796763516928895E-002	1,000000000000000E+000	-1,6737902E-001	41	2,4340652E-005
2	1	0	1	0	1,364816507548499E+005	1,4553486E+000	1,4546579E+000	2,220603409153160E-002	1,000000000000000E+000	-1,6236059E-001	41	3,2302185E-005
2	1	0	1	0	1,367315491939480E+005	1,5553079E+000	1,5546219E+000	2,990062472237354E-002	1,000000000000000E+000	-1,5603539E-001	41	4,6484169E-005
2	1	0	1	0	1,369814474330489E+005	1,6552671E+000	1,6546006E+000	1,483774625716998E-001	1,000000000000000E+000	-1,3650116E-001	40	2,4550545E-004
2	1	0	1	0	1,372313458721470E+005	1,7552265E+000	1,7545723E+000	1,618159686147469E-001	1,000000000000000E+000	-9,3669370E-002	40	2,8391782E-004
2	1	0	1	0	1,374812441112478E+005	1,8551855E+000	1,8545369E+000	9,619214157504508E-002	1,000000000000000E+000	-6,1747260E-002	40	1,7839187E-004
2	1	0	1	0	1,377311424503463E+005	1,9551449E+000	1,9545295E+000	5,427368139354449E-002	1,000000000000000E+000	-4,3498587E-002	40	1,0607951E-004
2	1	0	1	0	1,379810406894470E+005	2,0551040E+000	2,0544562E+000	3,328048066066513E-002	1,000000000000000E+000	-3,2822907E-002	41	6,8373294E-005
2	1	0	1	0	1,382309393285454E+005	2,1550632E+000	2,1544204E+000	2,197607500776644E-002	1,000000000000000E+000	-2,6039904E-002	41	4,7345704E-005
2	1	0	1	0	1,384808378676460E+005	2,2550223E+000	2,2543674E+000	1,601264111710324E-002	1,000000000000000E+000	-2,1360831E-002	41	3,6098376E-005
2	1	0	1	0	1,387307368067442E+005	2,3549814E+000	2,3543510E+000	1,310500750449242E-002	1,000000000000000E+000	-1,7752398E-002	41	3,0853789E-005
2	1	0	1	0	1,389806357458457E+005	2,4549410E+000	2,4543111E+000	1,211132208909912E-002	1,000000000000000E+000	-1,4609902E-002	41	2,9724953E-005
2	1	0	1	0	1,392305339849433E+005	2,5548999E+000	2,5542655E+000	1,146534854902620E-002	1,000000000000000E+000	-1,1633168E-002	41	2,9285544E-005
2	1	0	1	0	1,394804325240450E+005	2,6548593E+000	2,6542523E+000	1,110869757018564E-002	1,000000000000000E+000	-8,8168960E-003	41	2,9485285E-005
2	1	0	1	1	1,397270826626336E+005	2,6464629E+000	2,6458380E+000	2,004486216478953E-003	2,000000000000000E+000	-6,9622807E-003	42	5,3035460E-006
2	0	0	1	1	1,399769806017356E+005	2,5465035E+000	2,5459037E+000	-1,095387295924030E-003	2,000000000000000E+000	-6,9431853E-003	42	-2,7887506E-006
2	0	0	1	1	1,402268786408326E+005	2,4465442E+000	2,4459772E+000	-2,341036125745231E-003	2,000000000000000E+000	-7,4081947E-003	42	-5,7261209E-006
2	0	0	1	1	1,404767765799346E+005	2,3465850E+000	2,3460031E+000	-3,256939134082775E-003	2,000000000000000E+000	-8,1308158E-003	42	-7,6407896E-006
2	0	0	1	1	1,407266743190323E+005	2,2466257E+000	2,2460604E+000	-4,319668715978511E-003	2,000000000000000E+000	-9,0875002E-003	42	-9,7022366E-006
[...]
2	0	0	1	1	1,422260620536297E+005	1,6468705E+000	1,6462713E+000	-3,978541013346693E-002	2,000000000000000E+000	-3,3022068E-002	41	-6,5497581E-005
2	0	0	1	1	1,424759600927290E+005	1,5469114E+000	1,5463490E+000	-8,129614478605229E-002	2,000000000000000E+000	-4,6937894E-002	41	-1,2571222E-004
2	0	0	1	1	1,427258578318288E+005	1,4469521E+000	1,4463464E+000	-1,712022991431370E-001	2,000000000000000E+000	-8,0832832E-002	40	-2,4761783E-004
2	0	0	1	1	1,429757557709273E+005	1,3469929E+000	1,3463575E+000	-1,135917908799678E-001	2,000000000000000E+000	-1,1703231E-001	40	-1,5293516E-004
2	0	0	1	1	1,432256536100281E+005	1,2470338E+000	1,2464048E+000	-7,767322511837738E-002	2,000000000000000E+000	-1,4039151E-001	40	-9,6812277E-005
2	0	0	1	1	1,434755516491258E+005	1,1470745E+000	1,1464375E+000	-6,217940078327605E-002	2,000000000000000E+000	-1,5756984E-001	40	-7,1284798E-005
2	0	0	1	1	1,437254493882277E+005	1,0471152E+000	1,0464599E+000	-5,991503380982588E-002	2,000000000000000E+000	-1,7261674E-001	40	-6,2698680E-005
2	0	0	1	1	1,439720995268170E+005	1,0515134E+000	1,0508531E+000	-8,070550838579691E-003	2,000000000000000E+000	-1,8304510E-001	41	-8,4809635E-006
2	1	0	1	1	1,442219977659176E+005	1,1514727E+000	1,1507578E+000	9,656467499153935E-003	2,000000000000000E+000	-1,8227273E-001	42	1,1112255E-005
2	1	0	1	1	1,444718960050158E+005	1,2514319E+000	1,2507591E+000	1,516743504646861E-002	2,000000000000000E+000	-1,7906162E-001	41	1,8970808E-005
2	1	0	1	1	1,447217941441170E+005	1,3513912E+000	1,3507025E+000	1,871818431344668E-002	2,000000000000000E+000	-1,7479542E-001	41	2,5282699E-005
2	1	0	1	1	1,449716924832147E+005	1,4513505E+000	1,4506692E+000	2,270615665853823E-002	2,000000000000000E+000	-1,6962399E-001	41	3,2939122E-005
2	1	0	1	1	1,452215908223162E+005	1,5513096E+000	1,5506147E+000	3,003756517668717E-002	2,000000000000000E+000	-1,6321421E-001	41	4,6576690E-005
2	1	0	1	1	1,454714890614138E+005	1,6512688E+000	1,6505686E+000	1,579711275528880E-001	2,000000000000000E+000	-1,4302492E-001	40	2,6074218E-004
2	1	0	1	1	1,457213874005154E+005	1,7512280E+000	1,7505410E+000	1,668159909982445E-001	2,000000000000000E+000	-9,7742923E-002	40	2,9201823E-004
2	1	0	1	1	1,459712857396123E+005	1,8511873E+000	1,8505300E+000	9,314643686521462E-002	2,000000000000000E+000	-6,5738216E-002	40	1,7237027E-004
2	1	0	1	1	1,462211839787147E+005	1,9511464E+000	1,9504855E+000	5,060625906961747E-002	2,000000000000000E+000	-4,8421040E-002	40	9,8706776E-005
2	1	0	1	1	1,464713322178503E+005	2,0512054E+000	2,0505352E+000	3,102663607634637E-002	2,000000000000000E+000	-3,8457539E-002	41	6,3621206E-005
2	1	0	1	1	1,467212308569530E+005	2,1511650E+000	2,1505206E+000	2,074064209446719E-002	2,000000000000000E+000	-3,2096360E-002	41	4,4603177E-005
2	1	0	1	1	1,469711293960493E+005	2,2511241E+000	2,2504654E+000	1,538297348816378E-002	2,000000000000000E+000	-2,7638517E-002	41	3,4618850E-005
2	1	0	1	1	1,472210283351517E+005	2,3510833E+000	2,3504443E+000	1,275862132091710E-002	2,000000000000000E+000	-2,4143692E-002	41	2,9988429E-005
2	1	0	1	1	1,474709269742491E+005	2,4510422E+000	2,4503686E+000	1,189622184155017E-002	2,000000000000000E+000	-2,1065222E-002	41	2,9150129E-005
2	1	0	1	1	1,477208255133501E+005	2,5510020E+000	2,5503490E+000	1,133029202447178E-002	2,000000000000000E+000	-1,8124649E-002	41	2,8896198E-005
2	1	0	1	1	1,479707240524483E+005	2,6509607E+000	2,6503413E+000	1,104201230882795E-002	2,000000000000000E+000	-1,5331106E-002	41	2,9265100E-005
2	1	0	0	0	1,481975207879334E+005	2,7417748E+000	2,7411652E+000	1,231470060181514E-002	2,000000000000000E+000	-1,2732306E-002	41	3,3756627E-005