Folder: Randles-Sevcik/Dati/210311 (part 4)

File: CV_LTO_MX_10 layer_grafite nuova_0.1_1mVs_07_CV_C03.mpt
EC-Lab ASCII FILE
Nb header lines : 57

Cyclic Voltammetry

Run on channel : 3 (SN 6807)
User :
Electrode connection : standard
Ewe ctrl range : min = 0,00 V, max = 5,00 V
Ewe,I filtering : 50 kHz
Safety Limits :
	Do not start on E overload
Channel : Grounded
Acquisition started on : 03/11/2021 17:24:33
Saved on :
	File : CV_LTO_MX_10 layer_grafite nuova_0.1_1mVs_07_CV_C03.mpr
	Directory : C:\Users\labsuperfici\Desktop\Biologic\Users\Prisca Viviani\210311\
	Host : 169.254.114.127
Device : VSP-300 (SN 0638)
Address : USB
EC-Lab for windows v11.31 (software)
Internet server v11.30 (firmware)
Command interpretor v11.31 (firmware)
Electrode material :
Initial state :
Electrolyte :
Comments :
Cable : standard
Reference electrode : SCE Saturated Calomel Electrode (0,241 V)
Electrode surface area : 0,001 cm²
Characteristic mass : 0,001 g
Equivalent Weight : 0,000 g/eq.
Density : 0,000 g/cm3
Cycle Definition : Charge/Discharge alternance
Ei (V)              0,000
vs.                 Eoc
dE/dt               0,700
dE/dt unit          mV/s
E1 (V)              1,000
vs.                 Ref
Step percent        50
N                   10
E range min (V)     0,000
E range max (V)     5,000
I Range             Auto
I Range min         Unset
I Range max         Unset
I Range init        Unset
Bandwidth           8
E2 (V)              3,000
vs.                 Ref
nc cycles           0
Reverse Scan        1
Ef (V)              0,000
vs.                 Eoc

mode	ox/red	error	control changes	counter inc.	time/s	control/V	Ewe/V	<I>/mA	cycle number	(Q-Qo)/C	I Range	P/W
2	0	0	1	0	9,800191213087121E+004	1,7222385E+000	1,7217616E+000	-3,435135260224342E-002	1,000000000000000E+000	0,0000000E+000	41	-5,9144841E-005
2	0	0	0	0	9,808409371144295E+004	1,6647110E+000	1,6641309E+000	-4,130031926497522E-002	1,000000000000000E+000	-3,0034671E-003	41	-6,8729139E-005
2	0	0	0	0	9,816691769182868E+004	1,6067342E+000	1,6061623E+000	-5,299320695869525E-002	1,000000000000000E+000	-6,8906881E-003	41	-8,5115695E-005
2	0	0	1	0	9,824974157227349E+004	1,5487574E+000	1,5482074E+000	-6,947389099915902E-002	1,000000000000000E+000	-1,1926531E-002	41	-1,0755999E-004
2	0	0	1	0	9,833256565263961E+004	1,4907807E+000	1,4902632E+000	-9,360705270604602E-002	1,000000000000000E+000	-1,8624717E-002	41	-1,3949914E-004
2	0	0	1	0	9,841538943308417E+004	1,4328038E+000	1,4321829E+000	-1,246078362064629E-001	1,000000000000000E+000	-2,7658353E-002	40	-1,7846121E-004
2	0	0	1	0	9,849821361347102E+004	1,3748269E+000	1,3742187E+000	-1,507334883555607E-001	1,000000000000000E+000	-3,9133452E-002	40	-2,0714078E-004
2	0	0	1	0	9,858103759388765E+004	1,3168501E+000	1,3162055E+000	-1,673731404730208E-001	1,000000000000000E+000	-5,2378386E-002	40	-2,2029744E-004
2	0	0	1	0	9,866386147430167E+004	1,2588732E+000	1,2582864E+000	-1,756695856019488E-001	1,000000000000000E+000	-6,6657230E-002	40	-2,2104265E-004
2	0	0	1	0	9,874668545469199E+004	1,2008963E+000	1,2002734E+000	-1,736856407580859E-001	1,000000000000000E+000	-8,1174873E-002	40	-2,0847026E-004
2	0	0	1	0	9,882950933513092E+004	1,1429197E+000	1,1423010E+000	-1,682455831876902E-001	1,000000000000000E+000	-9,5349804E-002	40	-1,9218709E-004
2	0	0	1	0	9,891233331549796E+004	1,0849429E+000	1,0843143E+000	-1,622210898682754E-001	1,000000000000000E+000	-1,0904265E-001	40	-1,7589866E-004
2	0	0	1	0	9,899515739594784E+004	1,0269662E+000	1,0263397E+000	-1,567767696827047E-001	1,000000000000000E+000	-1,2224919E-001	40	-1,6090622E-004
2	0	0	1	0	9,907584007683070E+004	1,0295650E+000	1,0289507E+000	-1,219889967953458E-001	1,000000000000000E+000	-1,3393994E-001	40	-1,2552066E-004
2	0	0	1	0	9,915866405726213E+004	1,0875418E+000	1,0869207E+000	-9,046629715851950E-002	1,000000000000000E+000	-1,4261326E-001	40	-9,8329692E-005
2	0	0	1	0	9,924148823766224E+004	1,1455187E+000	1,1449029E+000	-6,996436571311038E-002	1,000000000000000E+000	-1,4920075E-001	40	-8,0102407E-005
2	0	0	0	0	9,932431221806584E+004	1,2034955E+000	1,2028736E+000	-5,473744821663257E-002	1,000000000000000E+000	-1,5433431E-001	40	-6,5842229E-005
2	0	0	0	0	9,940713619849179E+004	1,2614723E+000	1,2608683E+000	-4,229308006914029E-002	1,000000000000000E+000	-1,5833037E-001	41	-5,3326003E-005
2	0	0	1	0	9,948996027887083E+004	1,3194489E+000	1,3188478E+000	-3,168760699814049E-002	1,000000000000000E+000	-1,6137959E-001	41	-4,1791129E-005
2	0	0	1	0	9,957278425932117E+004	1,3774259E+000	1,3768301E+000	-2,179517286757204E-002	1,000000000000000E+000	-1,6358624E-001	41	-3,0008250E-005
2	0	0	1	0	9,965560833968839E+004	1,4354028E+000	1,4347895E+000	-1,165760432872978E-002	1,000000000000000E+000	-1,6497183E-001	41	-1,6726208E-005
2	0	0	1	0	9,973843232012587E+004	1,4933796E+000	1,4927605E+000	-7,118521435391448E-005	1,000000000000000E+000	-1,6546625E-001	43	-1,0626248E-007
2	1	0	1	0	9,982125650051981E+004	1,5513564E+000	1,5506885E+000	1,506839927893761E-002	1,000000000000000E+000	-1,6487652E-001	41	2,3366394E-005
2	1	0	0	0	9,990408048092946E+004	1,6093332E+000	1,6086677E+000	4,171865120993457E-002	1,000000000000000E+000	-1,6268694E-001	41	6,7111447E-005
2	1	0	1	0	9,998690456135047E+004	1,6673101E+000	1,6666206E+000	8,768049028967884E-002	1,000000000000000E+000	-1,5735371E-001	41	1,4613011E-004
2	1	0	1	0	1,000697286417345E+005	1,7252868E+000	1,7246575E+000	1,315339308048387E-001	1,000000000000000E+000	-1,4822440E-001	40	2,2685099E-004
2	1	0	1	0	1,001525526221807E+005	1,7832636E+000	1,7825897E+000	1,664714553331459E-001	1,000000000000000E+000	-1,3579673E-001	40	2,9675031E-004
2	1	0	1	0	1,002353768025466E+005	1,8412406E+000	1,8406043E+000	1,894732382377085E-001	1,000000000000000E+000	-1,2095977E-001	40	3,4874526E-004
2	1	0	1	0	1,003182006829898E+005	1,8992171E+000	1,8985941E+000	2,005047247407798E-001	1,000000000000000E+000	-1,0472255E-001	40	3,8067708E-004
2	1	0	0	0	1,004010247633772E+005	1,9571940E+000	1,9565961E+000	1,989429799599134E-001	1,000000000000000E+000	-8,8080898E-002	40	3,8925107E-004
2	1	0	1	0	1,004838488437934E+005	2,0151708E+000	2,0145187E+000	1,836298825200551E-001	1,000000000000000E+000	-7,2138108E-002	40	3,6992584E-004
2	1	0	1	0	1,005666729242082E+005	2,0731475E+000	2,0725396E+000	1,563744964806564E-001	1,000000000000000E+000	-5,7982668E-002	40	3,2409234E-004
2	1	0	1	0	1,006494970045974E+005	2,1311245E+000	2,1305275E+000	1,227534895125895E-001	1,000000000000000E+000	-4,6408232E-002	40	2,6152970E-004
2	1	0	1	0	1,007323209850384E+005	2,1891012E+000	2,1885409E+000	9,281880658960162E-002	1,000000000000000E+000	-3,7536833E-002	40	2,0313775E-004
2	1	0	1	0	1,008151451654055E+005	2,2470779E+000	2,2464881E+000	7,272507071188583E-002	1,000000000000000E+000	-3,0740336E-002	40	1,6337601E-004
2	1	0	1	0	1,008979691458532E+005	2,3050547E+000	2,3044832E+000	5,920080307259501E-002	1,000000000000000E+000	-2,5301609E-002	40	1,3642726E-004
2	1	0	1	0	1,009807931262355E+005	2,3630314E+000	2,3624761E+000	4,922982063881243E-002	1,000000000000000E+000	-2,0831436E-002	40	1,1630428E-004
2	1	0	1	0	1,010637599066235E+005	2,4211082E+000	2,4205029E+000	4,319475575479412E-002	1,000000000000000E+000	-1,7011590E-002	41	1,0455303E-004
2	1	0	1	0	1,011465840870325E+005	2,4790854E+000	2,4784737E+000	3,954748936315700E-002	1,000000000000000E+000	-1,3585730E-002	41	9,8017408E-005
[...]
2	1	0	1	0	1,018091763302903E+005	2,9428997E+000	2,9423890E+000	2,428808970914864E-002	1,000000000000000E+000	6,0649547E-003	41	7,1465009E-005
2	1	0	1	1	1,018907870110043E+005	3,0000279E+000	2,9994423E+000	2,355959411585631E-002	1,000000000000000E+000	8,0165742E-003	41	7,0665643E-005
2	1	0	1	1	1,019729682915375E+005	2,9424999E+000	2,9419482E+000	1,052278211369095E-002	1,000000000000000E+000	9,1923140E-003	41	3,0957479E-005
2	1	0	1	1	1,020557924719867E+005	2,8845229E+000	2,8839514E+000	6,636780447174667E-003	1,000000000000000E+000	9,8818922E-003	41	1,9140152E-005
2	1	0	1	1	1,021386160523533E+005	2,8265462E+000	2,8259563E+000	4,378733054694633E-003	1,000000000000000E+000	1,0324738E-002	42	1,2374108E-005
2	1	0	1	1	1,022214402327938E+005	2,7685695E+000	2,7679927E+000	2,992450299136501E-003	1,000000000000000E+000	1,0620830E-002	42	8,2830811E-006
2	1	0	1	1	1,023042642131841E+005	2,7105925E+000	2,7100143E+000	1,994495344588197E-003	1,000000000000000E+000	1,0820558E-002	42	5,4051111E-006
2	1	0	1	1	1,023870879935967E+005	2,6526158E+000	2,6520336E+000	8,825926313660159E-004	1,000000000000000E+000	1,0936185E-002	42	2,3406653E-006
2	0	0	1	1	1,024699119740152E+005	2,5946388E+000	2,5941331E+000	-4,579428262213546E-004	1,000000000000000E+000	1,0943719E-002	43	-1,1879647E-006
2	0	0	1	1	1,025527355544018E+005	2,5366621E+000	2,5361300E+000	-1,212306325601742E-003	1,000000000000000E+000	1,0872135E-002	42	-3,0745664E-006
2	0	0	1	1	1,026355597348446E+005	2,4786851E+000	2,4781568E+000	-2,110097134209524E-003	1,000000000000000E+000	1,0729218E-002	42	-5,2291516E-006
2	0	0	1	1	1,027183833152118E+005	2,4207084E+000	2,4201999E+000	-3,053597550518775E-003	1,000000000000000E+000	1,0509481E-002	42	-7,3903166E-006
2	0	0	1	1	1,028012073956577E+005	2,3627317E+000	2,3622026E+000	-3,606371448167139E-003	1,000000000000000E+000	1,0226995E-002	42	-8,5189804E-006
2	0	0	1	1	1,028840314760418E+005	2,3047547E+000	2,3042569E+000	-4,224456716716452E-003	1,000000000000000E+000	9,8987119E-003	42	-9,7342336E-006
2	0	0	1	1	1,029668552564606E+005	2,2467782E+000	2,2462728E+000	-5,032316323266002E-003	1,000000000000000E+000	9,5117493E-003	42	-1,1303955E-005
2	0	0	1	1	1,030496792368734E+005	2,1888011E+000	2,1883240E+000	-6,046037112617655E-003	1,000000000000000E+000	9,0496028E-003	42	-1,3230688E-005
2	0	0	1	1	1,031325030172649E+005	2,1308246E+000	2,1303425E+000	-7,331068513566401E-003	1,000000000000000E+000	8,4925257E-003	42	-1,5617687E-005
2	0	0	1	1	1,032153269977027E+005	2,0728476E+000	2,0723748E+000	-8,959090479327733E-003	1,000000000000000E+000	7,8153750E-003	42	-1,8566594E-005
2	0	0	1	1	1,032981509780707E+005	2,0148709E+000	2,0143361E+000	-1,101932952243967E-002	1,000000000000000E+000	6,9862432E-003	41	-2,2196633E-005
2	0	0	1	1	1,033809748585209E+005	1,9568940E+000	1,9563380E+000	-1,343282620650971E-002	1,000000000000000E+000	5,9687737E-003	41	-2,6279149E-005
2	0	0	0	1	1,034637988388999E+005	1,8989172E+000	1,8983868E+000	-1,628647135211991E-002	1,000000000000000E+000	4,7377399E-003	41	-3,0918021E-005
2	0	0	1	1	1,035466227193251E+005	1,8409404E+000	1,8403685E+000	-1,994687682592219E-002	1,000000000000000E+000	3,2382344E-003	41	-3,6709604E-005
2	0	0	1	1	1,036294466997313E+005	1,7829638E+000	1,7824070E+000	-2,490194021976472E-002	1,000000000000000E+000	1,3902957E-003	41	-4,4385393E-005
2	0	0	0	1	1,037122707801289E+005	1,7249870E+000	1,7244337E+000	-3,168644435783907E-002	1,000000000000000E+000	-9,5042365E-004	41	-5,4641172E-005
2	0	0	1	1	1,037161843791960E+005	1,7222385E+000	1,7216699E+000	-3,204017217596516E-002	1,000000000000000E+000	-1,0753506E-003	41	-5,5162600E-005

File: CV_LTO_MX_10 layer_grafite nuova_0.1_1mVs_08_CV_C03.mpt
EC-Lab ASCII FILE
Nb header lines : 57

Cyclic Voltammetry

Run on channel : 3 (SN 6807)
User :
Electrode connection : standard
Ewe ctrl range : min = 0,00 V, max = 5,00 V
Ewe,I filtering : 50 kHz
Safety Limits :
	Do not start on E overload
Channel : Grounded
Acquisition started on : 03/11/2021 17:24:33
Saved on :
	File : CV_LTO_MX_10 layer_grafite nuova_0.1_1mVs_08_CV_C03.mpr
	Directory : C:\Users\labsuperfici\Desktop\Biologic\Users\Prisca Viviani\210311\
	Host : 169.254.114.127
Device : VSP-300 (SN 0638)
Address : USB
EC-Lab for windows v11.31 (software)
Internet server v11.30 (firmware)
Command interpretor v11.31 (firmware)
Electrode material :
Initial state :
Electrolyte :
Comments :
Cable : standard
Reference electrode : SCE Saturated Calomel Electrode (0,241 V)
Electrode surface area : 0,001 cm²
Characteristic mass : 0,001 g
Equivalent Weight : 0,000 g/eq.
Density : 0,000 g/cm3
Cycle Definition : Charge/Discharge alternance
Ei (V)              0,000
vs.                 Eoc
dE/dt               0,800
dE/dt unit          mV/s
E1 (V)              1,000
vs.                 Ref
Step percent        50
N                   10
E range min (V)     0,000
E range max (V)     5,000
I Range             Auto
I Range min         Unset
I Range max         Unset
I Range init        Unset
Bandwidth           8
E2 (V)              3,000
vs.                 Ref
nc cycles           0
Reverse Scan        1
Ef (V)              0,000
vs.                 Eoc

mode	ox/red	error	control changes	counter inc.	time/s	control/V	Ewe/V	<I>/mA	cycle number	(Q-Qo)/C	I Range	P/W
2	0	0	0	0	1,037164095791420E+005	1,7222385E+000	1,7216966E+000	-3,543144464492798E-002	1,000000000000000E+000	0,0000000E+000	41	-6,1002200E-005
2	0	0	1	0	1,037883183621506E+005	1,6647110E+000	1,6641780E+000	-4,163391834482955E-002	1,000000000000000E+000	-2,6634638E-003	41	-6,9286252E-005
2	0	0	1	0	1,038607894450167E+005	1,6067343E+000	1,6062158E+000	-5,295056255146402E-002	1,000000000000000E+000	-6,0754088E-003	41	-8,5050029E-005
2	0	0	1	0	1,039332604278428E+005	1,5487574E+000	1,5482326E+000	-6,847137733302699E-002	1,000000000000000E+000	-1,0450093E-002	41	-1,0600962E-004
2	0	0	1	0	1,040057314107369E+005	1,4907806E+000	1,4902978E+000	-9,013067327548929E-002	1,000000000000000E+000	-1,6161894E-002	41	-1,3432154E-004
2	0	0	1	0	1,040782023935785E+005	1,4328039E+000	1,4322187E+000	-1,175601633387296E-001	1,000000000000000E+000	-2,3676252E-002	40	-1,6837186E-004
2	0	0	1	0	1,041506733764262E+005	1,3748270E+000	1,3742560E+000	-1,427672993788787E-001	1,000000000000000E+000	-3,3151925E-002	40	-1,9619882E-004
2	0	0	1	0	1,042231443593181E+005	1,3168503E+000	1,3162619E+000	-1,607817818194239E-001	1,000000000000000E+000	-4,4203434E-002	40	-2,1163093E-004
2	0	0	1	0	1,042956154421390E+005	1,2588733E+000	1,2583001E+000	-1,718709556530458E-001	1,000000000000000E+000	-5,6300752E-002	40	-2,1626524E-004
2	0	0	1	0	1,043680864250098E+005	1,2008963E+000	1,2003005E+000	-1,741028749377473E-001	1,000000000000000E+000	-6,8906732E-002	40	-2,0897576E-004
2	0	0	1	0	1,044405573078811E+005	1,1429199E+000	1,1423432E+000	-1,708732815289127E-001	1,000000000000000E+000	-8,1425071E-002	40	-1,9519593E-004
2	0	0	1	0	1,045130282907025E+005	1,0849429E+000	1,0843394E+000	-1,667583237981329E-001	1,000000000000000E+000	-9,3672007E-002	40	-1,8082262E-004
2	0	0	1	0	1,045854992735944E+005	1,0269661E+000	1,0263903E+000	-1,623861768805197E-001	1,000000000000000E+000	-1,0559841E-001	40	-1,6667160E-004
2	0	0	1	0	1,046560970568885E+005	1,0295650E+000	1,0289834E+000	-1,273558202423968E-001	1,000000000000000E+000	-1,1623225E-001	40	-1,3104703E-004
2	0	0	1	0	1,047285680397225E+005	1,0875418E+000	1,0869503E+000	-9,459375599680274E-002	1,000000000000000E+000	-1,2416304E-001	40	-1,0281871E-004
2	0	0	1	0	1,048010390226168E+005	1,1455187E+000	1,1448988E+000	-7,323577937361708E-002	1,000000000000000E+000	-1,3019599E-001	40	-8,3847553E-005
2	0	0	1	0	1,048735101054506E+005	1,2034955E+000	1,2028757E+000	-5,726490201071360E-002	1,000000000000000E+000	-1,3489559E-001	40	-6,8882560E-005
2	0	0	1	0	1,049459810883077E+005	1,2614722E+000	1,2609123E+000	-4,429145621342112E-002	1,000000000000000E+000	-1,3855779E-001	41	-5,5847642E-005
2	0	0	1	0	1,050184522711912E+005	1,3194491E+000	1,3188738E+000	-3,320564803089787E-002	1,000000000000000E+000	-1,4135328E-001	41	-4,3794058E-005
2	0	0	1	0	1,050909231540121E+005	1,3774259E+000	1,3768733E+000	-2,286844919187375E-002	1,000000000000000E+000	-1,4337793E-001	41	-3,1486958E-005
2	0	0	1	0	1,051633943368918E+005	1,4354029E+000	1,4348159E+000	-1,239554319507445E-002	1,000000000000000E+000	-1,4465541E-001	41	-1,7785322E-005
2	0	0	1	0	1,052358653197513E+005	1,4933796E+000	1,4928180E+000	-5,548376931968924E-004	1,000000000000000E+000	-1,4513335E-001	42	-8,2827171E-007
2	1	0	1	0	1,053083363025812E+005	1,5513564E+000	1,5507400E+000	1,427123817856490E-002	1,000000000000000E+000	-1,4466093E-001	41	2,2130980E-005
2	1	0	1	0	1,053808074854759E+005	1,6093332E+000	1,6086955E+000	3,801045794382407E-002	1,000000000000000E+000	-1,4287035E-001	41	6,1147250E-005
2	1	0	1	0	1,054532784683143E+005	1,6673101E+000	1,6665992E+000	7,929638935629701E-002	1,000000000000000E+000	-1,3865879E-001	41	1,3215530E-004
2	1	0	1	0	1,055257496511663E+005	1,7252867E+000	1,7246861E+000	1,212701364362441E-001	1,000000000000000E+000	-1,3136427E-001	40	2,0915293E-004
2	1	0	1	0	1,055982206340547E+005	1,7832637E+000	1,7826461E+000	1,571502275775911E-001	1,000000000000000E+000	-1,2121674E-001	40	2,8014323E-004
2	1	0	1	0	1,056706917168750E+005	1,8412404E+000	1,8405979E+000	1,825904231358415E-001	1,000000000000000E+000	-1,0882682E-001	40	3,3607555E-004
2	1	0	1	0	1,057431626997486E+005	1,8992172E+000	1,8986239E+000	1,962623843918787E-001	1,000000000000000E+000	-9,5021434E-002	40	3,7262845E-004
2	1	0	1	0	1,058156337826157E+005	1,9571942E+000	1,9566022E+000	1,982446021156481E-001	1,000000000000000E+000	-8,0644831E-002	40	3,8788584E-004
2	1	0	1	0	1,058881048654397E+005	2,0151706E+000	2,0145726E+000	1,873154478639841E-001	1,000000000000000E+000	-6,6589549E-002	40	3,7736059E-004
2	1	0	1	0	1,059605760483337E+005	2,0731473E+000	2,0725436E+000	1,637389263658866E-001	1,000000000000000E+000	-5,3798780E-002	40	3,3935608E-004
2	1	0	1	0	1,060330471311784E+005	2,1311243E+000	2,1305578E+000	1,317304629632425E-001	1,000000000000000E+000	-4,3064445E-002	40	2,8065935E-004
2	1	0	1	0	1,061055182140239E+005	2,1891012E+000	2,1885202E+000	1,010751020917691E-001	1,000000000000000E+000	-3,4662265E-002	40	2,2120490E-004
2	1	0	1	0	1,061779892969157E+005	2,2470777E+000	2,2465127E+000	7,897261514987786E-002	1,000000000000000E+000	-2,8189549E-002	40	1,7741298E-004
2	1	0	1	0	1,062504603797375E+005	2,3050547E+000	2,3044825E+000	6,419291639524616E-002	1,000000000000000E+000	-2,3031686E-002	40	1,4793145E-004
2	1	0	1	0	1,063229314626073E+005	2,3630316E+000	2,3624690E+000	5,337710087642200E-002	1,000000000000000E+000	-1,8785134E-002	40	1,2610175E-004
2	1	0	1	0	1,063955273454494E+005	2,4211085E+000	2,4205453E+000	4,619583608012956E-002	1,000000000000000E+000	-1,5193271E-002	41	1,1181911E-004
2	1	0	1	0	1,064679984282702E+005	2,4790852E+000	2,4784923E+000	4,195942773082031E-002	1,000000000000000E+000	-1,2005297E-002	41	1,0399611E-004
[...]
2	1	0	1	0	1,070477667911347E+005	2,9428997E+000	2,9423709E+000	2,613853498604436E-002	1,000000000000000E+000	6,2602470E-003	41	7,6909266E-005
2	1	0	0	1	1,071191759742689E+005	3,0000279E+000	2,9995034E+000	2,546127710027245E-002	1,000000000000000E+000	8,1037646E-003	41	7,6371187E-005
2	1	0	1	1	1,071910845572614E+005	2,9424999E+000	2,9419844E+000	1,130844490614391E-002	1,000000000000000E+000	9,2096850E-003	41	3,3269269E-005
2	1	0	1	1	1,072635557400908E+005	2,8845229E+000	2,8839891E+000	7,147009579521302E-003	1,000000000000000E+000	9,8586874E-003	41	2,0611898E-005
2	1	0	1	1	1,073360267229849E+005	2,8265460E+000	2,8260107E+000	4,728380651035563E-003	1,000000000000000E+000	1,0276961E-002	42	1,3362454E-005
2	1	0	1	1	1,074084977058233E+005	2,7685697E+000	2,7679923E+000	3,221932291120257E-003	1,000000000000000E+000	1,0556864E-002	42	8,9182840E-006
2	1	0	1	1	1,074809686886762E+005	2,7105925E+000	2,7100348E+000	2,088945043506103E-003	1,000000000000000E+000	1,0744433E-002	42	5,6611138E-006
2	1	0	1	1	1,075534395715653E+005	2,6526155E+000	2,6520894E+000	8,700441797964047E-004	1,000000000000000E+000	1,0850384E-002	42	2,3074349E-006
2	0	0	1	1	1,076259106543846E+005	2,5946391E+000	2,5941620E+000	-5,476992956960254E-004	1,000000000000000E+000	1,0853060E-002	43	-1,4208207E-006
2	0	0	1	1	1,076983814372582E+005	2,5366621E+000	2,5361495E+000	-1,369159043026567E-003	1,000000000000000E+000	1,0782049E-002	42	-3,4723921E-006
2	0	0	1	1	1,077708524201253E+005	2,4786854E+000	2,4781685E+000	-2,365888287269045E-003	1,000000000000000E+000	1,0642083E-002	42	-5,8630699E-006
2	0	0	1	1	1,078433234029494E+005	2,4207084E+000	2,4202216E+000	-3,390945195957458E-003	1,000000000000000E+000	1,0428034E-002	42	-8,2068391E-006
2	0	0	1	1	1,079157942858429E+005	2,3627317E+000	2,3622630E+000	-3,989684325452526E-003	1,000000000000000E+000	1,0154883E-002	42	-9,4246834E-006
2	0	0	1	1	1,079882651686879E+005	2,3047550E+000	2,3042839E+000	-4,657499580664547E-003	1,000000000000000E+000	9,8381462E-003	42	-1,0732201E-005
2	0	0	1	1	1,080607362515341E+005	2,2467780E+000	2,2462802E+000	-5,533708693788886E-003	1,000000000000000E+000	9,4654700E-003	42	-1,2430261E-005
2	0	0	1	1	1,081332071344268E+005	2,1888011E+000	2,1883545E+000	-6,627723555502766E-003	1,000000000000000E+000	9,0220338E-003	42	-1,4503808E-005
2	0	0	1	1	1,082056781172480E+005	2,1308246E+000	2,1303940E+000	-7,972724820697261E-003	1,000000000000000E+000	8,4903827E-003	42	-1,6985045E-005
2	0	0	1	1	1,082781491001169E+005	2,0728476E+000	2,0724170E+000	-9,690989863167895E-003	1,000000000000000E+000	7,8480644E-003	42	-2,0083773E-005
2	0	0	1	1	1,083506199829900E+005	2,0148709E+000	2,0143318E+000	-1,184335804132289E-002	1,000000000000000E+000	7,0665739E-003	41	-2,3856453E-005
2	0	0	1	1	1,084230911658108E+005	1,9568939E+000	1,9563701E+000	-1,436722028985093E-002	1,000000000000000E+000	6,1130342E-003	41	-2,8107601E-005
2	0	0	1	1	1,084955620487020E+005	1,8989174E+000	1,8983727E+000	-1,737206846163747E-002	1,000000000000000E+000	4,9629542E-003	41	-3,2978660E-005
2	0	0	1	1	1,085680330315514E+005	1,8409406E+000	1,8403870E+000	-2,116013313063911E-002	1,000000000000000E+000	3,5667641E-003	41	-3,8942835E-005
2	0	0	1	1	1,086405039143914E+005	1,7829639E+000	1,7824188E+000	-2,628946813914113E-002	1,000000000000000E+000	1,8547843E-003	41	-4,6858844E-005
2	0	0	1	1	1,087129750972843E+005	1,7249869E+000	1,7244619E+000	-3,336612022719454E-002	1,000000000000000E+000	-3,0261511E-004	41	-5,7538604E-005
2	0	0	1	1	1,087163995964752E+005	1,7222385E+000	1,7217501E+000	-3,373768460738852E-002	1,000000000000000E+000	-4,1771028E-004	41	-5,8087862E-005