Folder: Randles-Sevcik/Dati/210311

File: CV_LTO_MX_10 layer_grafite nuova_0.1_1mVs_01_CV_C03.mpt
EC-Lab ASCII FILE
Nb header lines : 57

Cyclic Voltammetry

Run on channel : 3 (SN 6807)
User :
Electrode connection : standard
Ewe ctrl range : min = 0,00 V, max = 5,00 V
Ewe,I filtering : 50 kHz
Safety Limits :
	Do not start on E overload
Channel : Grounded
Acquisition started on : 03/11/2021 17:24:33
Saved on :
	File : CV_LTO_MX_10 layer_grafite nuova_0.1_1mVs_01_CV_C03.mpr
	Directory : C:\Users\labsuperfici\Desktop\Biologic\Users\Prisca Viviani\210311\
	Host : 169.254.114.127
Device : VSP-300 (SN 0638)
Address : USB
EC-Lab for windows v11.31 (software)
Internet server v11.30 (firmware)
Command interpretor v11.31 (firmware)
Electrode material :
Initial state :
Electrolyte :
Comments :
Cable : standard
Reference electrode : SCE Saturated Calomel Electrode (0,241 V)
Electrode surface area : 0,001 cm²
Characteristic mass : 0,001 g
Equivalent Weight : 0,000 g/eq.
Density : 0,000 g/cm3
Cycle Definition : Charge/Discharge alternance
Ei (V)              0,000
vs.                 Eoc
dE/dt               0,100
dE/dt unit          mV/s
E1 (V)              1,000
vs.                 Ref
Step percent        50
N                   10
E range min (V)     0,000
E range max (V)     5,000
I Range             Auto
I Range min         Unset
I Range max         Unset
I Range init        Unset
Bandwidth           8
E2 (V)              3,000
vs.                 Ref
nc cycles           0
Reverse Scan        1
Ef (V)              0,000
vs.                 Eoc

mode	ox/red	error	control changes	counter inc.	time/s	control/V	Ewe/V	<I>/mA	cycle number	(Q-Qo)/C	I Range	P/W
2	0	1	0	0	0,000000000000000E+000	1,7222385E+000	1,7217158E+000	-6,160395569168031E-004	1,000000000000000E+000	0,0000000E+000	43	-1,0606450E-006
2	0	0	1	0	5,752690854674802E+002	1,6647110E+000	1,6641663E+000	-8,450610306202588E-003	1,000000000000000E+000	-3,4913332E-003	42	-1,4063221E-005
2	0	0	1	0	1,155035170821357E+003	1,6067342E+000	1,6061085E+000	-1,373832639383063E-002	1,000000000000000E+000	-9,8211030E-003	41	-2,2065244E-005
2	0	0	1	0	1,734800556175251E+003	1,5487574E+000	1,5481259E+000	-2,383723736361903E-002	1,000000000000000E+000	-2,0365678E-002	41	-3,6903042E-005
2	0	0	1	0	2,314566541529130E+003	1,4907806E+000	1,4901834E+000	-4,602341025444334E-002	1,000000000000000E+000	-4,0304866E-002	41	-6,8583322E-005
2	0	0	1	0	2,894332526883009E+003	1,4328038E+000	1,4322175E+000	-5,834039149447978E-002	1,000000000000000E+000	-7,1421444E-002	41	-8,3556130E-005
2	0	0	1	0	3,474098512236887E+003	1,3748270E+000	1,3742603E+000	-5,884096855368004E-002	1,000000000000000E+000	-1,0567624E-001	41	-8,0862810E-005
2	0	0	1	0	4,053864497590766E+003	1,3168499E+000	1,3162706E+000	-5,160843651444880E-002	1,000000000000000E+000	-1,3795374E-001	41	-6,7930669E-005
2	0	0	1	0	4,633629890017153E+003	1,2588733E+000	1,2582735E+000	-4,504837462499607E-002	1,000000000000000E+000	-1,6592725E-001	41	-5,6683177E-005
2	0	0	1	0	5,213395882997815E+003	1,2008964E+000	1,2002774E+000	-3,979292838494547E-002	1,000000000000000E+000	-1,9048087E-001	41	-4,7762554E-005
2	0	0	1	0	5,793162175978476E+003	1,1429198E+000	1,1422921E+000	-3,566635748095520E-002	1,000000000000000E+000	-2,1233958E-001	41	-4,0741401E-005
2	0	0	1	0	6,372928168959115E+003	1,0849428E+000	1,0843151E+000	-3,267793035794792E-002	1,000000000000000E+000	-2,3213179E-001	41	-3,5433171E-005
2	0	0	1	0	6,952694161939799E+003	1,0269660E+000	1,0263330E+000	-3,066024685040325E-002	1,000000000000000E+000	-2,5047573E-001	41	-3,1467622E-005
2	0	0	1	0	7,517469955101929E+003	1,0295650E+000	1,0289555E+000	-2,139388877751286E-002	1,000000000000000E+000	-2,6592639E-001	41	-2,2013359E-005
2	0	0	1	0	8,097239448082546E+003	1,0875418E+000	1,0869076E+000	-1,442694928590149E-002	1,000000000000000E+000	-2,7604485E-001	41	-1,5680762E-005
2	0	0	1	0	8,677009041063138E+003	1,1455187E+000	1,1448771E+000	-1,036139516092877E-002	1,000000000000000E+000	-2,8312832E-001	41	-1,1862524E-005
2	0	0	1	0	9,256778634043760E+003	1,2034955E+000	1,2028500E+000	-7,535252043031015E-003	1,000000000000000E+000	-2,8825152E-001	41	-9,0637777E-006
2	0	0	1	0	9,836547227024450E+003	1,2614723E+000	1,2607931E+000	-5,308923962471568E-003	1,000000000000000E+000	-2,9192334E-001	41	-6,6934545E-006
2	0	0	1	0	1,041631682000507E+004	1,3194492E+000	1,3188125E+000	-3,452560432123716E-003	1,000000000000000E+000	-2,9441985E-001	42	-4,5532797E-006
2	0	0	1	0	1,099608581298565E+004	1,3774259E+000	1,3767930E+000	-1,729544883691776E-003	1,000000000000000E+000	-2,9589197E-001	42	-2,3812254E-006
2	1	0	1	0	1,157585540596627E+004	1,4354026E+000	1,4347271E+000	1,524986237516788E-004	1,000000000000000E+000	-2,9633430E-001	43	2,1879390E-007
2	1	0	1	0	1,215562499894689E+004	1,4933796E+000	1,4927067E+000	2,425234798722305E-003	1,000000000000000E+000	-2,9558671E-001	42	3,6201641E-006
2	1	0	1	0	1,273539459192750E+004	1,5513564E+000	1,5506251E+000	6,606839751234772E-003	1,000000000000000E+000	-2,9314226E-001	42	1,0244731E-005
2	1	0	1	0	1,331516418490814E+004	1,6093333E+000	1,6086384E+000	3,235449511152222E-002	1,000000000000000E+000	-2,8388286E-001	41	5,2046682E-005
2	1	0	1	0	1,389493377788877E+004	1,6673101E+000	1,6665959E+000	6,556187411391723E-002	1,000000000000000E+000	-2,5472140E-001	41	1,0926515E-004
2	1	0	1	0	1,447470337086939E+004	1,7252868E+000	1,7245538E+000	8,045534227055318E-002	1,000000000000000E+000	-2,1143192E-001	41	1,3874957E-004
2	1	0	1	0	1,505447296385001E+004	1,7832637E+000	1,7825346E+000	7,741238252296584E-002	1,000000000000000E+000	-1,6487482E-001	41	1,3799025E-004
2	1	0	1	0	1,563424215683060E+004	1,8412404E+000	1,8405355E+000	6,181054409193687E-002	1,000000000000000E+000	-1,2410057E-001	41	1,1376450E-004
2	1	0	1	0	1,621401114981121E+004	1,8992172E+000	1,8985454E+000	4,255878460952539E-002	1,000000000000000E+000	-9,3724415E-002	41	8,0799786E-005
2	1	0	1	0	1,679378074279183E+004	1,9571941E+000	1,9565363E+000	2,716590911447869E-002	1,000000000000000E+000	-7,4100897E-002	41	5,3151089E-005
2	1	0	1	0	1,737355153577239E+004	2,0151703E+000	2,0145335E+000	2,007863663303514E-002	1,000000000000000E+000	-6,0585357E-002	41	4,0449086E-005
2	1	0	1	0	1,795332112875301E+004	2,0731478E+000	2,0725353E+000	1,613219000123745E-002	1,000000000000000E+000	-5,0151557E-002	41	3,3434531E-005
2	1	0	1	0	1,853309062173369E+004	2,1311243E+000	2,1304896E+000	1,357025947817753E-002	1,000000000000000E+000	-4,1553497E-002	41	2,8911296E-005
2	1	0	1	0	1,911286021471431E+004	2,1891012E+000	2,1885068E+000	1,168045299795031E-002	1,000000000000000E+000	-3,4226749E-002	41	2,5562751E-005
2	1	0	1	0	1,969262980769493E+004	2,2470777E+000	2,2464569E+000	1,022775452510569E-002	1,000000000000000E+000	-2,7865088E-002	41	2,2976210E-005
2	1	0	1	0	2,027239940067555E+004	2,3050547E+000	2,3044739E+000	9,102258083057577E-003	1,000000000000000E+000	-2,2250457E-002	41	2,0975916E-005
2	1	0	1	0	2,085216899365617E+004	2,3630314E+000	2,3624444E+000	8,293445445868519E-003	1,000000000000000E+000	-1,7185429E-002	41	1,9592804E-005
2	1	0	1	0	2,143193818663678E+004	2,4210086E+000	2,4204259E+000	7,732836615153477E-003	1,000000000000000E+000	-1,2542169E-002	41	1,8716759E-005
2	1	0	1	0	2,201170777961740E+004	2,4789851E+000	2,4783902E+000	7,387448223507231E-003	1,000000000000000E+000	-8,1260940E-003	41	1,8308980E-005
2	1	0	1	0	2,259147737259802E+004	2,5369623E+000	2,5363820E+000	6,826483317992960E-003	1,000000000000000E+000	-3,9584893E-003	41	1,7314569E-005
[...]
2	1	0	1	0	2,664986322346234E+004	2,9427998E+000	2,9422369E+000	5,397542419809661E-003	1,000000000000000E+000	1,9598316E-002	41	1,5880849E-005
2	1	0	1	1	2,722213441653375E+004	3,0000279E+000	2,9994462E+000	5,781684834174142E-003	1,000000000000000E+000	2,2809763E-002	41	1,7341852E-005
2	1	0	1	1	2,779740090956888E+004	2,9425001E+000	2,9419045E+000	2,294594020572770E-003	1,000000000000000E+000	2,4743283E-002	42	6,7504766E-006
2	1	0	1	1	2,837716550254956E+004	2,8845232E+000	2,8839343E+000	1,289417993431919E-003	1,000000000000000E+000	2,5719775E-002	42	3,7185966E-006
2	1	0	1	1	2,895692679553037E+004	2,8265462E+000	2,8259404E+000	7,284394175062752E-004	1,000000000000000E+000	2,6263842E-002	42	2,0585264E-006
2	1	0	1	1	2,953668918851102E+004	2,7685690E+000	2,7679338E+000	4,365367465233886E-004	1,000000000000000E+000	2,6570739E-002	43	1,2083049E-006
2	1	0	1	1	3,011645158149168E+004	2,7105930E+000	2,7099998E+000	2,669269957932627E-004	1,000000000000000E+000	2,6752073E-002	43	7,2337212E-007
2	1	0	1	1	3,069621407447243E+004	2,6526155E+000	2,6520171E+000	1,073250451610995E-004	1,000000000000000E+000	2,6840545E-002	43	2,8462784E-007
2	0	0	1	1	3,127597646745310E+004	2,5946393E+000	2,5940597E+000	-1,709582077252061E-004	1,000000000000000E+000	2,6791787E-002	43	-4,4347578E-007
2	0	0	1	1	3,185573776043381E+004	2,5366621E+000	2,5361266E+000	-3,032268422110818E-004	1,000000000000000E+000	2,6636800E-002	43	-7,6902165E-007
2	0	0	1	1	3,243550135341450E+004	2,4786854E+000	2,4781523E+000	-4,813266182806773E-004	1,000000000000000E+000	2,6387345E-002	43	-1,1928007E-006
2	0	0	1	1	3,301526254984969E+004	2,4207089E+000	2,4201989E+000	-6,395001947455074E-004	1,000000000000000E+000	2,6041184E-002	43	-1,5477177E-006
2	0	0	1	1	3,359502605092945E+004	2,3627319E+000	2,3622088E+000	-7,340283998902210E-004	1,000000000000000E+000	2,5621612E-002	43	-1,7339283E-006
2	0	0	1	1	3,417478945200937E+004	2,3047547E+000	2,3041847E+000	-8,630101456745237E-004	1,000000000000000E+000	2,5139540E-002	42	-1,9885347E-006
2	0	0	1	1	3,475455195308919E+004	2,2467780E+000	2,2461860E+000	-1,065510445904348E-003	1,000000000000000E+000	2,4560483E-002	42	-2,3933346E-006
2	0	0	1	1	3,533431435416918E+004	2,1888015E+000	2,1882310E+000	-1,371965328006566E-003	1,000000000000000E+000	2,3834344E-002	42	-3,0021770E-006
2	0	0	1	1	3,591407675524906E+004	2,1308246E+000	2,1302428E+000	-1,790944195080385E-003	1,000000000000000E+000	2,2897096E-002	42	-3,8151461E-006
2	0	0	1	1	3,649383925632894E+004	2,0728476E+000	2,0722766E+000	-2,314646899227252E-003	1,000000000000000E+000	2,1685401E-002	42	-4,7965887E-006
2	0	0	1	1	3,707360165740876E+004	2,0148706E+000	2,0142932E+000	-2,907075847414106E-003	1,000000000000000E+000	2,0146903E-002	42	-5,8557030E-006
2	0	0	1	1	3,765336705848866E+004	1,9568942E+000	1,9563378E+000	-3,566145262081329E-003	1,000000000000000E+000	1,8247927E-002	42	-6,9765847E-006
2	0	0	1	1	3,823313255956862E+004	1,8989172E+000	1,8983693E+000	-4,410123011182711E-003	1,000000000000000E+000	1,5918430E-002	42	-8,3720424E-006
2	0	0	1	1	3,881289856064843E+004	1,8409405E+000	1,8403741E+000	-5,475048421279450E-003	1,000000000000000E+000	1,3037560E-002	42	-1,0076137E-005
2	0	0	1	1	3,939266476172837E+004	1,7829636E+000	1,7824141E+000	-6,997236781758787E-003	1,000000000000000E+000	9,4283819E-003	42	-1,2471974E-005
2	0	0	1	1	3,997243076280830E+004	1,7249868E+000	1,7244898E+000	-8,965055387761288E-003	1,000000000000000E+000	4,7908807E-003	42	-1,5460148E-005
2	0	0	0	1	3,999982496285933E+004	1,7222385E+000	1,7217768E+000	-9,065309775956376E-003	1,000000000000000E+000	4,5427643E-003	42	-1,5608441E-005

File: CV_LTO_MX_10 layer_grafite nuova_0.1_1mVs_02_CV_C03.mpt
EC-Lab ASCII FILE
Nb header lines : 57

Cyclic Voltammetry

Run on channel : 3 (SN 6807)
User :
Electrode connection : standard
Ewe ctrl range : min = 0,00 V, max = 5,00 V
Ewe,I filtering : 50 kHz
Safety Limits :
	Do not start on E overload
Channel : Grounded
Acquisition started on : 03/11/2021 17:24:33
Saved on :
	File : CV_LTO_MX_10 layer_grafite nuova_0.1_1mVs_02_CV_C03.mpr
	Directory : C:\Users\labsuperfici\Desktop\Biologic\Users\Prisca Viviani\210311\
	Host : 169.254.114.127
Device : VSP-300 (SN 0638)
Address : USB
EC-Lab for windows v11.31 (software)
Internet server v11.30 (firmware)
Command interpretor v11.31 (firmware)
Electrode material :
Initial state :
Electrolyte :
Comments :
Cable : standard
Reference electrode : SCE Saturated Calomel Electrode (0,241 V)
Electrode surface area : 0,001 cm²
Characteristic mass : 0,001 g
Equivalent Weight : 0,000 g/eq.
Density : 0,000 g/cm3
Cycle Definition : Charge/Discharge alternance
Ei (V)              0,000
vs.                 Eoc
dE/dt               0,200
dE/dt unit          mV/s
E1 (V)              1,000
vs.                 Ref
Step percent        50
N                   10
E range min (V)     0,000
E range max (V)     5,000
I Range             Auto
I Range min         Unset
I Range max         Unset
I Range init        Unset
Bandwidth           8
E2 (V)              3,000
vs.                 Ref
nc cycles           0
Reverse Scan        1
Ef (V)              0,000
vs.                 Eoc

mode	ox/red	error	control changes	counter inc.	time/s	control/V	Ewe/V	<I>/mA	cycle number	(Q-Qo)/C	I Range	P/W
2	0	0	1	0	4,000042436286039E+004	1,7222385E+000	1,7216661E+000	-9,297918528318405E-003	1,000000000000000E+000	0,0000000E+000	41	-1,6007911E-005
2	0	0	1	0	4,028805946339620E+004	1,6647112E+000	1,6640959E+000	-1,623628880137248E-002	1,000000000000000E+000	-3,7981283E-003	41	-2,7018741E-005
2	0	0	1	0	4,057794346393633E+004	1,6067343E+000	1,6061289E+000	-2,310533373390572E-002	1,000000000000000E+000	-9,4598280E-003	41	-3,7110145E-005
2	0	0	1	0	4,086782696447615E+004	1,5487574E+000	1,5481418E+000	-3,416592509297178E-002	1,000000000000000E+000	-1,7629866E-002	41	-5,2893698E-005
2	0	0	1	0	4,115771096501601E+004	1,4907806E+000	1,4902424E+000	-5,488900314322687E-002	1,000000000000000E+000	-3,0278817E-002	41	-8,1797916E-005
2	0	0	1	0	4,144759476555593E+004	1,4328036E+000	1,4322658E+000	-7,472407936993242E-002	1,000000000000000E+000	-4,9372453E-002	41	-1,0702474E-004
2	0	0	1	0	4,173747876609594E+004	1,3748269E+000	1,3743191E+000	-8,307551461708784E-002	1,000000000000000E+000	-7,2473340E-002	41	-1,1417227E-004
2	0	0	1	0	4,202736256663594E+004	1,3168501E+000	1,3163055E+000	-8,336762246385576E-002	1,000000000000000E+000	-9,6897833E-002	41	-1,0973726E-004
2	0	0	1	0	4,231724626717588E+004	1,2588735E+000	1,2583200E+000	-7,647698962677829E-002	1,000000000000000E+000	-1,2007317E-001	41	-9,6232521E-005
2	0	0	1	0	4,260713006771589E+004	1,2008965E+000	1,2003269E+000	-7,020153029843945E-002	1,000000000000000E+000	-1,4132279E-001	41	-8,4264786E-005
2	0	0	1	0	4,289701376825583E+004	1,1429197E+000	1,1423415E+000	-6,475765993051247E-002	1,000000000000000E+000	-1,6087532E-001	41	-7,3975360E-005
2	0	0	1	0	4,318689776879572E+004	1,0849429E+000	1,0843621E+000	-6,033375816484815E-002	1,000000000000000E+000	-1,7899369E-001	41	-6,5423643E-005
2	0	0	1	0	4,347678156933567E+004	1,0269661E+000	1,0263755E+000	-5,724937563979204E-002	1,000000000000000E+000	-1,9602343E-001	41	-5,8759357E-005
2	0	0	1	0	4,375916996986174E+004	1,0295650E+000	1,0289878E+000	-4,215863646903362E-002	1,000000000000000E+000	-2,1067731E-001	41	-4,3380722E-005
2	0	0	1	0	4,404905497040163E+004	1,0875417E+000	1,0869370E+000	-3,002196765124740E-002	1,000000000000000E+000	-2,2094113E-001	41	-3,2631986E-005
2	0	0	1	0	4,433893957094161E+004	1,1455187E+000	1,1449362E+000	-2,225804155285740E-002	1,000000000000000E+000	-2,2843398E-001	41	-2,5484038E-005
2	0	0	1	0	4,462882457148150E+004	1,2034956E+000	1,2028854E+000	-1,673546488183364E-002	1,000000000000000E+000	-2,3402923E-001	41	-2,0130847E-005
2	0	0	1	0	4,491870887202164E+004	1,2614723E+000	1,2608522E+000	-1,247720946991307E-002	1,000000000000000E+000	-2,3822615E-001	41	-1,5731917E-005
2	0	0	1	0	4,520859347256136E+004	1,3194492E+000	1,3188261E+000	-8,962600159046596E-003	1,000000000000000E+000	-2,4130823E-001	41	-1,1820111E-005
2	0	0	1	0	4,549847817310132E+004	1,3774258E+000	1,3767949E+000	-5,716500252968597E-003	1,000000000000000E+000	-2,4341913E-001	41	-7,8704488E-006
2	0	0	1	0	4,578836277364136E+004	1,4354025E+000	1,4347860E+000	-2,315115051699318E-003	1,000000000000000E+000	-2,4457687E-001	42	-3,3216945E-006
2	1	0	1	0	4,607824777418142E+004	1,4933795E+000	1,4927577E+000	1,789765534481123E-003	1,000000000000000E+000	-2,4466558E-001	42	2,6716862E-006
2	1	0	1	0	4,636813237472120E+004	1,5513564E+000	1,5506657E+000	8,222709572790143E-003	1,000000000000000E+000	-2,4331112E-001	42	1,2750674E-005
2	1	0	1	0	4,665801737526106E+004	1,6093332E+000	1,6086854E+000	2,971767896441224E-002	1,000000000000000E+000	-2,3862679E-001	41	4,7806396E-005
2	1	0	1	0	4,694790197580107E+004	1,6673101E+000	1,6666051E+000	6,615403750466609E-002	1,000000000000000E+000	-2,2462741E-001	41	1,1025266E-004
2	1	0	1	0	4,723778697634116E+004	1,7252868E+000	1,7245612E+000	9,372800265865355E-002	1,000000000000000E+000	-2,0113912E-001	41	1,6163968E-004
2	1	0	1	0	4,752767157688105E+004	1,7832636E+000	1,7826219E+000	1,083474884505291E-001	1,000000000000000E+000	-1,7151332E-001	40	1,9314261E-004
2	1	0	1	0	4,781755617742101E+004	1,8412405E+000	1,8406180E+000	1,100733756405803E-001	1,000000000000000E+000	-1,3952968E-001	40	2,0260304E-004
2	1	0	1	0	4,810744087796094E+004	1,8992172E+000	1,8985914E+000	9,885709862982517E-002	1,000000000000000E+000	-1,0890747E-001	40	1,8768923E-004
2	1	0	1	0	4,839732547850092E+004	1,9571941E+000	1,9565728E+000	7,592196146706698E-002	1,000000000000000E+000	-8,3321512E-002	40	1,4854684E-004
2	1	0	1	0	4,868721107904080E+004	2,0151706E+000	2,0145772E+000	4,930476705462816E-002	1,000000000000000E+000	-6,5362610E-002	40	9,9328259E-005
2	1	0	1	0	4,897759567958163E+004	2,0732474E+000	2,0726092E+000	3,445606748536290E-002	1,000000000000000E+000	-5,3449154E-002	41	7,1413961E-005
2	1	0	1	0	4,926748068012169E+004	2,1312244E+000	2,1306405E+000	2,716583033429040E-002	1,000000000000000E+000	-4,4613346E-002	41	5,7880618E-005
2	1	0	1	0	4,955736468066182E+004	2,1892014E+000	2,1885984E+000	2,272974209191625E-002	1,000000000000000E+000	-3,7410330E-002	41	4,9746279E-005
2	1	0	1	0	4,984725028120156E+004	2,2471781E+000	2,2465641E+000	1,963880698225914E-002	1,000000000000000E+000	-3,1276725E-002	41	4,4119839E-005
2	1	0	1	0	5,013713428174146E+004	2,3051550E+000	2,3045578E+000	1,734029992624686E-002	1,000000000000000E+000	-2,5918096E-002	41	3,9961724E-005
2	1	0	1	0	5,042701928228157E+004	2,3631313E+000	2,3625467E+000	1,570159319099912E-002	1,000000000000000E+000	-2,1127995E-002	41	3,7095746E-005
2	1	0	1	0	5,071690388282156E+004	2,4211082E+000	2,4205401E+000	1,453617739443538E-002	1,000000000000000E+000	-1,6748810E-002	41	3,5185400E-005
2	1	0	1	0	5,100678848336142E+004	2,4790850E+000	2,4784904E+000	1,367473641744832E-002	1,000000000000000E+000	-1,2639327E-002	41	3,3892702E-005
[...]
2	1	0	1	0	5,332586628768104E+004	2,9428999E+000	2,9423201E+000	8,796131207320791E-003	1,000000000000000E+000	1,1798102E-002	41	2,5881034E-005
2	1	0	0	1	5,361150258821307E+004	3,0000279E+000	2,9994462E+000	8,832161958800988E-003	1,000000000000000E+000	1,4319918E-002	41	2,6491594E-005
2	1	0	1	1	5,389913728874887E+004	2,9425001E+000	2,9418941E+000	3,674637711985288E-003	1,000000000000000E+000	1,5809361E-002	42	1,0810395E-005
2	1	0	1	1	5,418902128928900E+004	2,8845232E+000	2,8839216E+000	2,186249763256917E-003	1,000000000000000E+000	1,6618662E-002	42	6,3049729E-006
2	1	0	1	1	5,447890328982868E+004	2,8265467E+000	2,8259635E+000	1,327471820669301E-003	1,000000000000000E+000	1,7100425E-002	42	3,7513869E-006
2	1	0	1	1	5,476878669036878E+004	2,7685692E+000	2,7680004E+000	8,487386892273817E-004	1,000000000000000E+000	1,7392989E-002	42	2,3493089E-006
2	1	0	1	1	5,505866929090861E+004	2,7105925E+000	2,7099209E+000	5,428953790483637E-004	1,000000000000000E+000	1,7578714E-002	43	1,4712035E-006
2	1	0	1	1	5,534855269144848E+004	2,6526158E+000	2,6520030E+000	2,130480134320335E-004	1,000000000000000E+000	1,7678587E-002	43	5,6500397E-007
2	0	0	1	1	5,563893489198945E+004	2,5945392E+000	2,5939951E+000	-2,679413610553320E-004	1,000000000000000E+000	1,7652867E-002	43	-6,9503858E-007
2	0	0	1	1	5,592881829252932E+004	2,5365622E+000	2,5360265E+000	-5,194954398448637E-004	1,000000000000000E+000	1,7527618E-002	43	-1,3174542E-006
2	0	0	1	1	5,621870089306938E+004	2,4785855E+000	2,4781132E+000	-8,210116019184087E-004	1,000000000000000E+000	1,7320579E-002	43	-2,0345597E-006
2	0	0	1	1	5,650858429360949E+004	2,4206083E+000	2,4200275E+000	-1,133826004758136E-003	1,000000000000000E+000	1,7021995E-002	42	-2,7438900E-006
2	0	0	1	1	5,679846729414922E+004	2,3626318E+000	2,3620625E+000	-1,334732984629600E-003	1,000000000000000E+000	1,6646245E-002	42	-3,1527227E-006
2	0	0	1	1	5,708835029468918E+004	2,3046548E+000	2,3041050E+000	-1,577298584904241E-003	1,000000000000000E+000	1,6210249E-002	42	-3,6342617E-006
2	0	0	1	1	5,737823369522911E+004	2,2466781E+000	2,2460775E+000	-1,917308107473814E-003	1,000000000000000E+000	1,5691465E-002	42	-4,3064229E-006
2	0	0	1	1	5,766811569576908E+004	2,1887014E+000	2,1881323E+000	-2,401433263477207E-003	1,000000000000000E+000	1,5053428E-002	42	-5,2546538E-006
2	0	0	1	1	5,795799969630901E+004	2,1307247E+000	2,1301551E+000	-3,071844784275114E-003	1,000000000000000E+000	1,4248637E-002	42	-6,5435056E-006
2	0	0	1	1	5,824788169684913E+004	2,0727479E+000	2,0721915E+000	-3,944573851021704E-003	1,000000000000000E+000	1,3219519E-002	42	-8,1739126E-006
2	0	0	1	1	5,853776509738894E+004	2,0147707E+000	2,0141962E+000	-5,009766092159827E-003	1,000000000000000E+000	1,1907240E-002	42	-1,0090652E-005
2	0	0	1	1	5,882764859792890E+004	1,9567943E+000	1,9562752E+000	-6,144408224632518E-003	1,000000000000000E+000	1,0278281E-002	42	-1,2020154E-005
2	0	0	1	1	5,911753259846894E+004	1,8988173E+000	1,8982812E+000	-7,587592941564331E-003	1,000000000000000E+000	8,2800835E-003	42	-1,4403385E-005
2	0	0	1	1	5,940741639900871E+004	1,8408407E+000	1,8403175E+000	-9,428387438524428E-003	1,000000000000000E+000	5,8067702E-003	42	-1,7351227E-005
2	0	0	1	1	5,969730039954869E+004	1,7828637E+000	1,7822458E+000	-1,202420530758741E-002	1,000000000000000E+000	2,7054730E-003	41	-2,1430089E-005
2	0	0	1	1	5,998718440008868E+004	1,7248870E+000	1,7242500E+000	-1,538653746212711E-002	1,000000000000000E+000	-1,2694040E-003	41	-2,6530237E-005
2	0	0	1	1	6,000038180011325E+004	1,7222385E+000	1,7216356E+000	-1,556595783260615E-002	1,000000000000000E+000	-1,4742801E-003	41	-2,6798907E-005