Folder: Randles-Sevcik/Dati/210311 (part 5)

File: CV_LTO_MX_10 layer_grafite nuova_0.1_1mVs_09_CV_C03.mpt
EC-Lab ASCII FILE
Nb header lines : 57

Cyclic Voltammetry

Run on channel : 3 (SN 6807)
User :
Electrode connection : standard
Ewe ctrl range : min = 0,00 V, max = 5,00 V
Ewe,I filtering : 50 kHz
Safety Limits :
	Do not start on E overload
Channel : Grounded
Acquisition started on : 03/11/2021 17:24:33
Saved on :
	File : CV_LTO_MX_10 layer_grafite nuova_0.1_1mVs_09_CV_C03.mpr
	Directory : C:\Users\labsuperfici\Desktop\Biologic\Users\Prisca Viviani\210311\
	Host : 169.254.114.127
Device : VSP-300 (SN 0638)
Address : USB
EC-Lab for windows v11.31 (software)
Internet server v11.30 (firmware)
Command interpretor v11.31 (firmware)
Electrode material :
Initial state :
Electrolyte :
Comments :
Cable : standard
Reference electrode : SCE Saturated Calomel Electrode (0,241 V)
Electrode surface area : 0,001 cm²
Characteristic mass : 0,001 g
Equivalent Weight : 0,000 g/eq.
Density : 0,000 g/cm3
Cycle Definition : Charge/Discharge alternance
Ei (V)              0,000
vs.                 Eoc
dE/dt               0,900
dE/dt unit          mV/s
E1 (V)              1,000
vs.                 Ref
Step percent        50
N                   10
E range min (V)     0,000
E range max (V)     5,000
I Range             Auto
I Range min         Unset
I Range max         Unset
I Range init        Unset
Bandwidth           8
E2 (V)              3,000
vs.                 Ref
nc cycles           0
Reverse Scan        1
Ef (V)              0,000
vs.                 Eoc

mode	ox/red	error	control changes	counter inc.	time/s	control/V	Ewe/V	<I>/mA	cycle number	(Q-Qo)/C	I Range	P/W
2	0	0	1	0	1,087166109964260E+005	1,7222385E+000	1,7217119E+000	-3,728624433279037E-002	1,000000000000000E+000	0,0000000E+000	41	-6,4196167E-005
2	0	0	1	0	1,087805298812838E+005	1,6647111E+000	1,6641717E+000	-4,343943249849286E-002	1,000000000000000E+000	-2,4794016E-003	41	-7,2290677E-005
2	0	0	1	0	1,088449485660258E+005	1,6067343E+000	1,6062036E+000	-5,481603318042505E-002	1,000000000000000E+000	-5,6299190E-003	41	-8,8045708E-005
2	0	0	1	0	1,089093672508021E+005	1,5487573E+000	1,5482154E+000	-7,020789252194926E-002	1,000000000000000E+000	-9,6352315E-003	41	-1,0869694E-004
2	0	0	1	0	1,089737859355866E+005	1,4907806E+000	1,4903225E+000	-9,124161866891967E-002	1,000000000000000E+000	-1,4807558E-002	41	-1,3597944E-004
2	0	0	1	0	1,090382046203467E+005	1,4328038E+000	1,4322131E+000	-1,176392312630521E-001	1,000000000000000E+000	-2,1523830E-002	40	-1,6848445E-004
2	0	0	1	0	1,091026233050860E+005	1,3748270E+000	1,3742452E+000	-1,429519905064800E-001	1,000000000000000E+000	-2,9947938E-002	40	-1,9645109E-004
2	0	0	1	0	1,091670420898402E+005	1,3168501E+000	1,3162422E+000	-1,621884203465416E-001	1,000000000000000E+000	-3,9820265E-002	40	-2,1347924E-004
2	0	0	1	0	1,092314606746227E+005	1,2588732E+000	1,2583115E+000	-1,751096315400340E-001	1,000000000000000E+000	-5,0719280E-002	40	-2,2034247E-004
2	0	0	1	0	1,092958793594074E+005	1,2008965E+000	1,2003058E+000	-1,802470134972269E-001	1,000000000000000E+000	-6,2225021E-002	40	-2,1635155E-004
2	0	0	1	0	1,093602980441480E+005	1,1429195E+000	1,1423432E+000	-1,785374183045056E-001	1,000000000000000E+000	-7,3799573E-002	40	-2,0395100E-004
2	0	0	1	0	1,094247166288882E+005	1,0849429E+000	1,0843843E+000	-1,753440166864026E-001	1,000000000000000E+000	-8,5208513E-002	40	-1,9014030E-004
2	0	0	1	0	1,094891354136609E+005	1,0269661E+000	1,0264053E+000	-1,716930822140643E-001	1,000000000000000E+000	-9,6386693E-002	40	-1,7622669E-004
2	0	0	1	0	1,095518887988344E+005	1,0295650E+000	1,0289857E+000	-1,355701250265553E-001	1,000000000000000E+000	-1,0641306E-001	40	-1,3949972E-004
2	0	0	1	0	1,096163075836077E+005	1,0875419E+000	1,0869787E+000	-1,009007768619453E-001	1,000000000000000E+000	-1,1392518E-001	40	-1,0967699E-004
2	0	0	1	0	1,096807261683478E+005	1,1455185E+000	1,1449385E+000	-7,823269554068535E-002	1,000000000000000E+000	-1,1964781E-001	40	-8,9571622E-005
2	0	0	1	0	1,097451450530889E+005	1,2034954E+000	1,2028919E+000	-6,125218425996783E-002	1,000000000000000E+000	-1,2411316E-001	40	-7,3679759E-005
2	0	0	1	0	1,098095636378736E+005	1,2614721E+000	1,2609236E+000	-4,740178362433867E-002	1,000000000000000E+000	-1,2759756E-001	41	-5,9770027E-005
2	0	0	1	0	1,098739824226550E+005	1,3194492E+000	1,3189218E+000	-3,547221412071332E-002	1,000000000000000E+000	-1,3025586E-001	41	-4,6785077E-005
2	0	0	1	0	1,099384011074100E+005	1,3774258E+000	1,3768580E+000	-2,443723885441762E-002	1,000000000000000E+000	-1,3217984E-001	41	-3,3646607E-005
2	0	0	1	0	1,100028198921492E+005	1,4354029E+000	1,4348110E+000	-1,328379584889998E-002	1,000000000000000E+000	-1,3339415E-001	41	-1,9059737E-005
2	0	0	1	0	1,100672384769095E+005	1,4933796E+000	1,4928179E+000	-9,085180113190712E-004	1,000000000000000E+000	-1,3385695E-001	42	-1,3562519E-006
2	1	0	1	0	1,101316573616937E+005	1,5513563E+000	1,5507635E+000	1,438772112984811E-002	1,000000000000000E+000	-1,3344187E-001	41	2,2311953E-005
2	1	0	1	0	1,101960760464699E+005	1,6093333E+000	1,6087204E+000	3,742035602922456E-002	1,000000000000000E+000	-1,3185184E-001	41	6,0198890E-005
2	1	0	1	0	1,102604948312121E+005	1,6673101E+000	1,6666405E+000	7,704581395619131E-002	1,000000000000000E+000	-1,2820779E-001	41	1,2840767E-004
2	1	0	1	0	1,103249136159506E+005	1,7252868E+000	1,7246854E+000	1,184630578003596E-001	1,000000000000000E+000	-1,2189285E-001	40	2,0431151E-004
2	1	0	1	0	1,103893322007307E+005	1,7832637E+000	1,7826732E+000	1,552017002009218E-001	1,000000000000000E+000	-1,1303378E-001	40	2,7667391E-004
2	1	0	1	0	1,104537509855141E+005	1,8412405E+000	1,8406310E+000	1,820977097331054E-001	1,000000000000000E+000	-1,0210412E-001	40	3,3517470E-004
2	1	0	1	0	1,105181695702723E+005	1,8992171E+000	1,8986223E+000	1,976750287225113E-001	1,000000000000000E+000	-8,9810371E-002	40	3,7531022E-004
2	1	0	1	0	1,105825884550137E+005	1,9571941E+000	1,9566146E+000	2,018131081013372E-001	1,000000000000000E+000	-7,6873496E-002	40	3,9487047E-004
2	1	0	1	0	1,106470071397665E+005	2,0151711E+000	2,0145965E+000	1,936617590515981E-001	1,000000000000000E+000	-6,4066239E-002	40	3,9015029E-004
2	1	0	1	0	1,107114258245516E+005	2,0731475E+000	2,0725772E+000	1,728860223709590E-001	1,000000000000000E+000	-5,2190691E-002	40	3,5831964E-004
2	1	0	1	0	1,107758448093331E+005	2,1311243E+000	2,1306007E+000	1,427289348185186E-001	1,000000000000000E+000	-4,1983414E-002	40	3,0409836E-004
2	1	0	1	0	1,108402634940743E+005	2,1891015E+000	2,1885650E+000	1,116889542566257E-001	1,000000000000000E+000	-3,3805601E-002	40	2,4443853E-004
2	1	0	1	0	1,109046821788151E+005	2,2470782E+000	2,2465496E+000	8,734974928734862E-002	1,000000000000000E+000	-2,7437698E-002	40	1,9623555E-004
2	1	0	1	0	1,109691009635879E+005	2,3050547E+000	2,3045301E+000	7,088310902942851E-002	1,000000000000000E+000	-2,2371238E-002	40	1,6335226E-004
2	1	0	1	0	1,110335197483723E+005	2,3630316E+000	2,3624966E+000	5,924663785997897E-002	1,000000000000000E+000	-1,8194227E-002	40	1,3996998E-004
2	1	0	1	0	1,110979384331362E+005	2,4210086E+000	2,4204977E+000	5,067704818334462E-002	1,000000000000000E+000	-1,4668967E-002	40	1,2266368E-004
2	1	0	1	0	1,111624682178507E+005	2,4790852E+000	2,4785085E+000	4,564030885398454E-002	1,000000000000000E+000	-1,1569797E-002	41	1,1311990E-004
[...]
2	1	0	1	0	1,116778178959729E+005	2,9428997E+000	2,9423683E+000	2,831771711903663E-002	1,000000000000000E+000	5,9782108E-003	41	8,3321152E-005
2	1	0	0	1	1,117412928809391E+005	3,0000279E+000	2,9994843E+000	2,759325086048361E-002	1,000000000000000E+000	7,7557955E-003	41	8,2765524E-005
2	1	0	1	1	1,118052117657979E+005	2,9424996E+000	2,9419963E+000	1,226401378102118E-002	1,000000000000000E+000	8,8237477E-003	41	3,6080684E-005
2	1	0	1	1	1,118696305505801E+005	2,8845229E+000	2,8839962E+000	7,792783696064037E-003	1,000000000000000E+000	9,4520897E-003	41	2,2474358E-005
2	1	0	1	1	1,119340491353632E+005	2,8265462E+000	2,8260679E+000	5,162634265753099E-003	1,000000000000000E+000	9,8585337E-003	41	1,4589955E-005
2	1	0	1	1	1,119984677201199E+005	2,7685697E+000	2,7680180E+000	3,518721401286458E-003	1,000000000000000E+000	1,0130521E-002	42	9,7398843E-006
2	1	0	1	1	1,120628864048598E+005	2,7105927E+000	2,7100532E+000	2,265684980106731E-003	1,000000000000000E+000	1,0312167E-002	42	6,1401270E-006
2	1	0	1	1	1,121273050896166E+005	2,6526158E+000	2,6521013E+000	9,115161729474422E-004	1,000000000000000E+000	1,0413053E-002	42	2,4174333E-006
2	0	0	1	1	1,121917236744005E+005	2,5946388E+000	2,5941749E+000	-6,024606790263915E-004	1,000000000000000E+000	1,0413475E-002	43	-1,5628883E-006
2	0	0	1	1	1,122561422591811E+005	2,5366623E+000	2,5361738E+000	-1,509130812954602E-003	1,000000000000000E+000	1,0344177E-002	42	-3,8274179E-006
2	0	0	1	1	1,123205610439221E+005	2,4786851E+000	2,4781926E+000	-2,609026001246718E-003	1,000000000000000E+000	1,0207678E-002	42	-6,4656688E-006
2	0	0	1	1	1,123849795286616E+005	2,4207084E+000	2,4202464E+000	-3,716953222170347E-003	1,000000000000000E+000	9,9990973E-003	42	-8,9959422E-006
2	0	0	1	1	1,124493982134378E+005	2,3627317E+000	2,3622451E+000	-4,355278691890098E-003	1,000000000000000E+000	9,7337477E-003	42	-1,0288236E-005
2	0	0	1	1	1,125138168982212E+005	2,3047550E+000	2,3042970E+000	-5,094928481587616E-003	1,000000000000000E+000	9,4265556E-003	42	-1,1740228E-005
2	0	0	1	1	1,125782353829839E+005	2,2467780E+000	2,2462969E+000	-6,026891486319463E-003	1,000000000000000E+000	9,0657193E-003	42	-1,3538188E-005
2	0	0	1	1	1,126426541677241E+005	2,1888013E+000	2,1883330E+000	-7,203308932423713E-003	1,000000000000000E+000	8,6373100E-003	42	-1,5763238E-005
2	0	0	1	1	1,127070728524746E+005	2,1308248E+000	2,1303997E+000	-8,618279784095767E-003	1,000000000000000E+000	8,1257066E-003	42	-1,8360381E-005
2	0	0	1	1	1,127714914372592E+005	2,0728476E+000	2,0723362E+000	-1,042596717784787E-002	1,000000000000000E+000	7,5099398E-003	41	-2,1606109E-005
2	0	0	1	1	1,128359101220421E+005	2,0148709E+000	2,0143576E+000	-1,265201383802461E-002	1,000000000000000E+000	6,7659593E-003	41	-2,5485680E-005
2	0	0	1	1	1,129003288067860E+005	1,9568942E+000	1,9563845E+000	-1,528737683978496E-002	1,000000000000000E+000	5,8626640E-003	41	-2,9907987E-005
2	0	0	1	1	1,129647474915257E+005	1,8989174E+000	1,8983858E+000	-1,842197991881786E-002	1,000000000000000E+000	4,7773360E-003	41	-3,4972025E-005
2	0	0	1	1	1,130291661762958E+005	1,8409405E+000	1,8404009E+000	-2,240537527330388E-002	1,000000000000000E+000	3,4628683E-003	41	-4,1234875E-005
2	0	0	1	1	1,130935847610796E+005	1,7829639E+000	1,7824328E+000	-2,770402006426870E-002	1,000000000000000E+000	1,8555399E-003	41	-4,9380553E-005
2	0	0	1	1	1,131580035458466E+005	1,7249869E+000	1,7244655E+000	-3,507926498372005E-002	1,000000000000000E+000	-1,6184329E-004	41	-6,0492981E-005
2	0	0	1	1	1,131610475451222E+005	1,7222385E+000	1,7217157E+000	-3,547646190106341E-002	1,000000000000000E+000	-2,6940179E-004	41	-6,1080384E-005

File: CV_LTO_MX_10 layer_grafite nuova_0.1_1mVs_10_CV_C03.mpt
EC-Lab ASCII FILE
Nb header lines : 57

Cyclic Voltammetry

Run on channel : 3 (SN 6807)
User :
Electrode connection : standard
Ewe ctrl range : min = 0,00 V, max = 5,00 V
Ewe,I filtering : 50 kHz
Safety Limits :
	Do not start on E overload
Channel : Grounded
Acquisition started on : 03/11/2021 17:24:33
Saved on :
	File : CV_LTO_MX_10 layer_grafite nuova_0.1_1mVs_10_CV_C03.mpr
	Directory : C:\Users\labsuperfici\Desktop\Biologic\Users\Prisca Viviani\210311\
	Host : 169.254.114.127
Device : VSP-300 (SN 0638)
Address : USB
EC-Lab for windows v11.31 (software)
Internet server v11.30 (firmware)
Command interpretor v11.31 (firmware)
Electrode material :
Initial state :
Electrolyte :
Comments :
Cable : standard
Reference electrode : SCE Saturated Calomel Electrode (0,241 V)
Electrode surface area : 0,001 cm²
Characteristic mass : 0,001 g
Equivalent Weight : 0,000 g/eq.
Density : 0,000 g/cm3
Cycle Definition : Charge/Discharge alternance
Ei (V)              0,000
vs.                 Eoc
dE/dt               1,000
dE/dt unit          mV/s
E1 (V)              1,000
vs.                 Ref
Step percent        50
N                   10
E range min (V)     0,000
E range max (V)     5,000
I Range             Auto
I Range min         Unset
I Range max         Unset
I Range init        Unset
Bandwidth           8
E2 (V)              3,000
vs.                 Ref
nc cycles           0
Reverse Scan        1
Ef (V)              0,000
vs.                 Eoc

mode	ox/red	error	control changes	counter inc.	time/s	control/V	Ewe/V	<I>/mA	cycle number	(Q-Qo)/C	I Range	P/W
2	0	0	1	0	1,131612477450725E+005	1,7222385E+000	1,7217463E+000	-3,943878039717674E-002	1,000000000000000E+000	0,0000000E+000	41	-6,7903573E-005
2	0	0	1	0	1,132187749314569E+005	1,6647110E+000	1,6641546E+000	-4,538130839420884E-002	1,000000000000000E+000	-2,3363717E-003	41	-7,5521515E-005
2	0	0	1	0	1,132767517177332E+005	1,6067340E+000	1,6062207E+000	-5,685188879215586E-002	1,000000000000000E+000	-5,2872160E-003	41	-9,1316680E-005
2	0	0	1	0	1,133347285040105E+005	1,5487574E+000	1,5482281E+000	-7,244450623363258E-002	1,000000000000000E+000	-9,0164561E-003	41	-1,1216063E-004
2	0	0	1	0	1,133927051902921E+005	1,4907805E+000	1,4903098E+000	-9,335527455043702E-002	1,000000000000000E+000	-1,3799328E-002	41	-1,3912829E-004
2	0	0	1	0	1,134506820765878E+005	1,4328038E+000	1,4322067E+000	-1,194397052246337E-001	1,000000000000000E+000	-1,9955356E-002	40	-1,7106235E-004
2	0	0	1	0	1,135086588628828E+005	1,3748268E+000	1,3742528E+000	-1,452859552388626E-001	1,000000000000000E+000	-2,7651452E-002	40	-1,9965963E-004
2	0	0	1	0	1,135666356491777E+005	1,3168499E+000	1,3162813E+000	-1,657536827947128E-001	1,000000000000000E+000	-3,6705177E-002	40	-2,1817848E-004
2	0	0	1	0	1,136246124354731E+005	1,2588732E+000	1,2583126E+000	-1,800942258438414E-001	1,000000000000000E+000	-4,6762474E-002	40	-2,2661484E-004
2	0	0	1	0	1,136825892217672E+005	1,2008965E+000	1,2003114E+000	-1,878578052925808E-001	1,000000000000000E+000	-5,7476174E-002	40	-2,2548786E-004
2	0	0	1	0	1,137405660080444E+005	1,1429197E+000	1,1423553E+000	-1,875893402510180E-001	1,000000000000000E+000	-6,8385363E-002	40	-2,1429369E-004
2	0	0	1	0	1,137985426943214E+005	1,0849431E+000	1,0843687E+000	-1,852031439714392E-001	1,000000000000000E+000	-7,9200804E-002	40	-2,0082849E-004
2	0	0	1	0	1,138565195805975E+005	1,0269660E+000	1,0263852E+000	-1,825370486057044E-001	1,000000000000000E+000	-8,9861430E-002	40	-1,8735332E-004
2	0	0	1	0	1,139129976672316E+005	1,0295650E+000	1,0289825E+000	-1,451454642725378E-001	1,000000000000000E+000	-9,9487826E-002	40	-1,4935214E-004
2	0	0	1	0	1,139709745535080E+005	1,0875418E+000	1,0869658E+000	-1,081388198846602E-001	1,000000000000000E+000	-1,0673181E-001	40	-1,1754320E-004
2	0	0	1	0	1,140289513397975E+005	1,1455187E+000	1,1449236E+000	-8,387809523974599E-002	1,000000000000000E+000	-1,1225500E-001	40	-9,6034011E-005
2	0	0	1	0	1,140869281260930E+005	1,2034955E+000	1,2028950E+000	-6,557223784908173E-002	1,000000000000000E+000	-1,1656158E-001	40	-7,8876517E-005
2	0	0	1	0	1,141449049123881E+005	1,2614723E+000	1,2608970E+000	-5,074658524324110E-002	1,000000000000000E+000	-1,1991722E-001	40	-6,3986219E-005
2	0	0	1	0	1,142028817986840E+005	1,3194489E+000	1,3188869E+000	-3,787082678879095E-002	1,000000000000000E+000	-1,2247398E-001	41	-4,9947335E-005
2	0	0	1	0	1,142608585849801E+005	1,3774258E+000	1,3768492E+000	-2,607027973387541E-002	1,000000000000000E+000	-1,2432092E-001	41	-3,5894842E-005
2	0	0	1	0	1,143188354712665E+005	1,4354026E+000	1,4348189E+000	-1,421895728154839E-002	1,000000000000000E+000	-1,2548777E-001	41	-2,0401629E-005
2	0	0	1	0	1,143768122575426E+005	1,4933796E+000	1,4928184E+000	-1,155144865307683E-003	1,000000000000000E+000	-1,2593825E-001	42	-1,7244215E-006
2	1	0	1	0	1,144347890438186E+005	1,5513563E+000	1,5507288E+000	1,471600838771789E-002	1,000000000000000E+000	-1,2556100E-001	41	2,2820537E-005
2	1	0	1	0	1,144927659300942E+005	1,6093333E+000	1,6087147E+000	3,772181510311357E-002	1,000000000000000E+000	-1,2410359E-001	41	6,0683640E-005
2	1	0	1	0	1,145507428163704E+005	1,6673100E+000	1,6666448E+000	7,673304108155277E-002	1,000000000000000E+000	-1,2082747E-001	41	1,2788673E-004
2	1	0	1	0	1,146087196026547E+005	1,7252866E+000	1,7246989E+000	1,182077587667905E-001	1,000000000000000E+000	-1,1516391E-001	40	2,0387280E-004
2	1	0	1	0	1,146666963889501E+005	1,7832634E+000	1,7826558E+000	1,556683252413937E-001	1,000000000000000E+000	-1,0718887E-001	40	2,7750304E-004
2	1	0	1	0	1,147246732752458E+005	1,8412404E+000	1,8406384E+000	1,838877508888650E-001	1,000000000000000E+000	-9,7286239E-002	40	3,3847085E-004
2	1	0	1	0	1,147826500615417E+005	1,8992171E+000	1,8986447E+000	2,011123707560394E-001	1,000000000000000E+000	-8,6068489E-002	40	3,8184095E-004
2	1	0	1	0	1,148406269478379E+005	1,9571940E+000	1,9566307E+000	2,069734061113704E-001	1,000000000000000E+000	-7,4179865E-002	40	4,0497052E-004
2	1	0	1	0	1,148986037341296E+005	2,0151706E+000	2,0146081E+000	2,007774036708829E-001	1,000000000000000E+000	-6,2298380E-002	40	4,0448780E-004
2	1	0	1	0	1,149565805204054E+005	2,0731475E+000	2,0725889E+000	1,823164254714709E-001	1,000000000000000E+000	-5,1132325E-002	40	3,7786699E-004
2	1	0	1	0	1,150145574066816E+005	2,1311243E+000	2,1305628E+000	1,535713557249254E-001	1,000000000000000E+000	-4,1352157E-002	40	3,2719341E-004
2	1	0	1	0	1,150725342929573E+005	2,1891012E+000	2,1885550E+000	1,222573634141999E-001	1,000000000000000E+000	-3,3363067E-002	40	2,6756697E-004
2	1	0	1	0	1,151305110792341E+005	2,2470779E+000	2,2465343E+000	9,636613980077047E-002	1,000000000000000E+000	-2,7061775E-002	40	2,1648985E-004
2	1	0	1	0	1,151884878655127E+005	2,3050547E+000	2,3045306E+000	7,797579615023909E-002	1,000000000000000E+000	-2,2042608E-002	40	1,7969761E-004
2	1	0	1	0	1,152464649518088E+005	2,3630319E+000	2,3625121E+000	6,528284265508855E-002	1,000000000000000E+000	-1,7908417E-002	40	1,5423150E-004
2	1	0	1	0	1,153044416381046E+005	2,4210083E+000	2,4204743E+000	5,586664019522906E-002	1,000000000000000E+000	-1,4407113E-002	40	1,3522376E-004
2	1	0	1	0	1,153624185244001E+005	2,4789855E+000	2,4784596E+000	4,966759124824360E-002	1,000000000000000E+000	-1,1357861E-002	40	1,2309912E-004
[...]
2	1	0	1	0	1,158262335146677E+005	2,9427998E+000	2,9422939E+000	3,061133500628249E-002	1,000000000000000E+000	5,7054698E-003	41	9,0067544E-005
2	1	0	1	1	1,158834607011374E+005	3,0000279E+000	2,9994957E+000	2,991549766446694E-002	1,000000000000000E+000	7,4419836E-003	41	8,9731409E-005
2	1	0	1	1	1,159409876875388E+005	2,9425001E+000	2,9420018E+000	1,333632363933751E-002	1,000000000000000E+000	8,4860371E-003	41	3,9235489E-005
2	1	0	1	1	1,159989646738349E+005	2,8845227E+000	2,8840077E+000	8,506034250273159E-003	1,000000000000000E+000	9,1017941E-003	41	2,4531468E-005
2	1	0	1	1	1,160569413601309E+005	2,8265462E+000	2,8260629E+000	5,645469830916239E-003	1,000000000000000E+000	9,5016342E-003	41	1,5954452E-005
2	1	0	1	1	1,161149181464193E+005	2,7685695E+000	2,7680433E+000	3,844361916411777E-003	1,000000000000000E+000	9,7698104E-003	42	1,0641360E-005
2	1	0	1	1	1,161728949326952E+005	2,7105927E+000	2,7100558E+000	2,456033434018075E-003	1,000000000000000E+000	9,9477600E-003	42	6,6559878E-006
2	1	0	1	1	1,162308717189711E+005	2,6526155E+000	2,6520853E+000	9,468054479901417E-004	1,000000000000000E+000	1,0045206E-002	42	2,5110089E-006
2	0	0	1	1	1,162888486052477E+005	2,5946388E+000	2,5941722E+000	-6,873669927250620E-004	1,000000000000000E+000	1,0044027E-002	43	-1,7831484E-006
2	0	0	1	1	1,163468252915246E+005	2,5366621E+000	2,5361707E+000	-1,655851504432516E-003	1,000000000000000E+000	9,9751335E-003	42	-4,1995222E-006
2	0	0	1	1	1,164048021778066E+005	2,4786854E+000	2,4781697E+000	-2,859043587091825E-003	1,000000000000000E+000	9,8407008E-003	42	-7,0851952E-006
2	0	0	1	1	1,164627788641024E+005	2,4207084E+000	2,4202547E+000	-4,057706242700777E-003	1,000000000000000E+000	9,6356282E-003	42	-9,8206829E-006
2	0	0	1	1	1,165207556503976E+005	2,3627322E+000	2,3622448E+000	-4,759029804909304E-003	1,000000000000000E+000	9,3752109E-003	42	-1,1241994E-005
2	0	0	1	1	1,165787324366932E+005	2,3047547E+000	2,3042879E+000	-5,534341329521825E-003	1,000000000000000E+000	9,0741292E-003	42	-1,2752716E-005
2	0	0	1	1	1,166367092229886E+005	2,2467785E+000	2,2463405E+000	-6,547786515885723E-003	1,000000000000000E+000	8,7214103E-003	42	-1,4708558E-005
2	0	0	1	1	1,166946861092824E+005	2,1888013E+000	2,1883893E+000	-7,779976511744197E-003	1,000000000000000E+000	8,3039291E-003	42	-1,7025617E-005
2	0	0	1	1	1,167526629955586E+005	2,1308248E+000	2,1304126E+000	-9,303959056922877E-003	1,000000000000000E+000	7,8069870E-003	42	-1,9821271E-005
2	0	0	1	1	1,168106396818346E+005	2,0728476E+000	2,0723081E+000	-1,117861089513946E-002	1,000000000000000E+000	7,2107241E-003	41	-2,3165525E-005
2	0	0	1	1	1,168686165681115E+005	2,0148709E+000	2,0143352E+000	-1,352232780546483E-002	1,000000000000000E+000	6,4940667E-003	41	-2,7238500E-005
2	0	0	1	1	1,169265934543884E+005	1,9568942E+000	1,9563761E+000	-1,630128166485741E-002	1,000000000000000E+000	5,6266552E-003	41	-3,1891439E-005
2	0	0	1	1	1,169845700406659E+005	1,8989173E+000	1,8983723E+000	-1,956917353543421E-002	1,000000000000000E+000	4,5875944E-003	41	-3,7149577E-005
2	0	0	1	1	1,170425469269603E+005	1,8409404E+000	1,8404053E+000	-2,375574109180645E-002	1,000000000000000E+000	3,3317392E-003	41	-4,3720192E-005
2	0	0	1	1	1,171005237132554E+005	1,7829636E+000	1,7824206E+000	-2,924972080299965E-002	1,000000000000000E+000	1,8008571E-003	41	-5,2135307E-005
2	0	0	1	1	1,171585004995506E+005	1,7249870E+000	1,7244517E+000	-3,692823314760524E-002	1,000000000000000E+000	-1,1280147E-004	41	-6,3680956E-005
2	0	0	1	1	1,171612401989077E+005	1,7222385E+000	1,7217616E+000	-3,734112053298133E-002	1,000000000000000E+000	-2,1470248E-004	41	-6,4292508E-005