Folder: Randles-Sevcik/Dati/210416 (part 5)

File: CV_LTO-CB_10_CV_C05.mpt
EC-Lab ASCII FILE
Nb header lines : 57

Cyclic Voltammetry

Run on channel : 5 (SN 6809)
User : Seelab
Electrode connection : standard
Ewe ctrl range : min = 0,00 V, max = 5,00 V
Ewe,I filtering : 50 kHz
Safety Limits :
	Do not start on E overload
Channel : Grounded
Acquisition started on : 04/16/2021 18:38:45
Saved on :
	File : CV_LTO-CB_10_CV_C05.mpr
	Directory : C:\Users\labsuperfici\Desktop\Biologic\Users\Prisca Viviani\210416\
	Host : 10.78.33.0
Device : VSP-300 (SN 0638)
Address : USB
EC-Lab for windows v11.31 (software)
Internet server v11.30 (firmware)
Command interpretor v11.31 (firmware)
Electrode material :
Initial state :
Electrolyte :
Comments :
Cable : standard
Reference electrode : SCE Saturated Calomel Electrode (0,241 V)
Electrode surface area : 0,001 cm²
Characteristic mass : 0,001 g
Equivalent Weight : 0,000 g/eq.
Density : 0,000 g/cm3
Cycle Definition : Charge/Discharge alternance
Ei (V)              0,000
vs.                 Eoc
dE/dt               0,900
dE/dt unit          mV/s
E1 (V)              1,000
vs.                 Ref
Step percent        50
N                   10
E range min (V)     0,000
E range max (V)     5,000
I Range             Auto
I Range min         Unset
I Range max         Unset
I Range init        Unset
Bandwidth           8
E2 (V)              3,000
vs.                 Ref
nc cycles           1
Reverse Scan        1
Ef (V)              0,000
vs.                 Eoc

mode	ox/red	error	control changes	counter inc.	time/s	control/V	Ewe/V	<I>/mA	cycle number	(Q-Qo)/C	I Range	P/W
2	0	0	0	0	2,186335746084824E+005	2,0588205E+000	2,0595753E+000	-1,989669352769852E-002	1,000000000000000E+000	0,0000000E+000	41	-4,0978739E-005
2	0	0	1	0	2,187618723285554E+005	1,9433520E+000	1,9441133E+000	-3,116990949246867E-002	1,000000000000000E+000	-3,1269931E-003	41	-6,0597835E-005
2	0	0	1	0	2,188906698487073E+005	1,8274344E+000	1,8282236E+000	-5,120152350544616E-002	1,000000000000000E+000	-8,3374949E-003	41	-9,3607836E-005
2	0	0	1	0	2,190194673688588E+005	1,7115166E+000	1,7123107E+000	-8,479045123017204E-002	1,000000000000000E+000	-1,6932303E-002	41	-1,4518760E-004
2	0	0	1	0	2,191482648890106E+005	1,5955989E+000	1,5963978E+000	-1,379901952329354E-001	1,000000000000000E+000	-3,1034887E-002	40	-2,2028724E-004
2	0	0	1	0	2,192770624091621E+005	1,4796813E+000	1,4804628E+000	-2,298629420500382E-001	1,000000000000000E+000	-5,4198690E-002	40	-3,4030352E-004
2	0	0	1	0	2,194058599293142E+005	1,3637635E+000	1,3645570E+000	-2,919270852720457E-001	1,000000000000000E+000	-8,8907674E-002	40	-3,9835114E-004
2	0	0	1	0	2,195346573494658E+005	1,2478458E+000	1,2486408E+000	-2,907861830048439E-001	1,000000000000000E+000	-1,2691437E-001	40	-3,6308749E-004
2	0	0	1	0	2,196634548696175E+005	1,1319280E+000	1,1327386E+000	-2,627872676104959E-001	1,000000000000000E+000	-1,6268401E-001	40	-2,9766929E-004
2	0	0	1	0	2,197922523897688E+005	1,0160104E+000	1,0168223E+000	-2,350194099490830E-001	1,000000000000000E+000	-1,9466145E-001	40	-2,3897299E-004
2	0	0	1	0	2,199194959096797E+005	1,0984519E+000	1,0992564E+000	-1,287365781769538E-001	1,000000000000000E+000	-2,1702030E-001	40	-1,4151451E-004
2	0	0	1	0	2,200482934298317E+005	1,2143695E+000	1,2151647E+000	-8,176558203292017E-002	1,000000000000000E+000	-2,3027703E-001	40	-9,9358644E-005
2	0	0	1	0	2,201770909499831E+005	1,3302872E+000	1,3310637E+000	-4,970942249913846E-002	1,000000000000000E+000	-2,3868211E-001	40	-6,6166409E-005
2	0	0	1	0	2,203058884701345E+005	1,4462049E+000	1,4469813E+000	-1,517537674249239E-002	1,000000000000000E+000	-2,4295263E-001	41	-2,1958487E-005
2	1	0	1	0	2,204347971903032E+005	1,5622226E+000	1,5630349E+000	3,526549387557132E-002	1,000000000000000E+000	-2,4192008E-001	41	5,5121196E-005
2	1	0	1	0	2,205635947104553E+005	1,6781403E+000	1,6789225E+000	1,776773537412297E-001	1,000000000000000E+000	-2,3005484E-001	40	2,9830652E-004
2	1	0	1	0	2,206923923306069E+005	1,7940580E+000	1,7948300E+000	4,131856930188773E-001	1,000000000000000E+000	-1,9213435E-001	40	7,4159808E-004
2	1	0	1	0	2,208211899507586E+005	1,9099755E+000	1,9107845E+000	4,983286239783693E-001	1,000000000000000E+000	-1,2996140E-001	40	9,5219858E-004
2	1	0	1	0	2,209499873709097E+005	2,0258932E+000	2,0266593E+000	3,108300428885391E-001	1,000000000000000E+000	-7,6662175E-002	40	6,2994659E-004
2	1	0	1	0	2,210787853910616E+005	2,1418111E+000	2,1425679E+000	1,612559262067023E-001	1,000000000000000E+000	-4,7341798E-002	40	3,4550176E-004
2	1	0	1	0	2,212075830112137E+005	2,2577288E+000	2,2584755E+000	9,275676039272174E-002	1,000000000000000E+000	-3,1598911E-002	40	2,0948888E-004
2	1	0	1	0	2,213363804313657E+005	2,3736465E+000	2,3744025E+000	6,268325560208177E-002	1,000000000000000E+000	-2,1810876E-002	40	1,4883529E-004
2	1	0	1	0	2,214652889515357E+005	2,4896636E+000	2,4904022E+000	4,759313217239419E-002	1,000000000000000E+000	-1,4770680E-002	41	1,1852604E-004
2	1	0	1	0	2,215940866716881E+005	2,6055815E+000	2,6063354E+000	3,769081310329059E-002	1,000000000000000E+000	-9,3090497E-003	41	9,8234901E-005
2	1	0	1	0	2,217228842918403E+005	2,7214992E+000	2,7222614E+000	3,102675802822390E-002	1,000000000000000E+000	-4,8665451E-003	41	8,4462947E-005
2	1	0	1	0	2,218516818119925E+005	2,8374169E+000	2,8381562E+000	2,810849570447937E-002	1,000000000000000E+000	-1,0995097E-003	41	7,9776299E-005
2	1	0	1	0	2,219804793321448E+005	2,9533346E+000	2,9540379E+000	2,541787625248149E-002	1,000000000000000E+000	2,3751098E-003	41	7,5085372E-005
2	1	0	1	1	2,221072783519835E+005	2,9324493E+000	2,9331834E+000	9,304761454464600E-003	1,000000000000000E+000	4,6755993E-003	41	2,7292572E-005
2	1	0	1	1	2,222360757721351E+005	2,8165317E+000	2,8172922E+000	3,735474794521680E-003	1,000000000000000E+000	5,4346877E-003	42	1,0523924E-005
2	1	0	1	1	2,223648729922867E+005	2,7006142E+000	2,7013438E+000	1,279519645766418E-003	1,000000000000000E+000	5,7327277E-003	42	3,4564225E-006
2	0	0	1	1	2,224953358126991E+005	2,5831974E+000	2,5839489E+000	-1,209183824724324E-003	1,000000000000000E+000	5,7131802E-003	42	-3,1244692E-006
2	0	0	1	1	2,226241334328507E+005	2,4672797E+000	2,4679646E+000	-3,007324211777036E-003	1,000000000000000E+000	5,4405415E-003	42	-7,4219697E-006
2	0	0	1	1	2,227529308530032E+005	2,3513620E+000	2,3520844E+000	-5,184591917875209E-003	1,000000000000000E+000	4,8997281E-003	42	-1,2194598E-005
2	0	0	1	1	2,228817281731553E+005	2,2354445E+000	2,2361782E+000	-8,801563248694994E-003	1,000000000000000E+000	4,0041688E-003	42	-1,9681864E-005
2	0	0	1	1	2,230105256933072E+005	2,1195269E+000	2,1202631E+000	-1,477243080952573E-002	1,000000000000000E+000	2,5061183E-003	41	-3,1321440E-005
2	0	0	1	1	2,231375465131802E+005	2,0052083E+000	2,0059462E+000	-2,444818248223578E-002	2,000000000000000E+000	4,7963516E-005	41	-4,9041737E-005
2	0	0	1	1	2,232663440333323E+005	1,8892902E+000	1,8900408E+000	-3,991133814774250E-002	2,000000000000000E+000	-4,0353769E-003	41	-7,5434058E-005
2	0	0	1	1	2,233951415534840E+005	1,7733725E+000	1,7741333E+000	-6,573420579417932E-002	2,000000000000000E+000	-1,0709613E-002	41	-1,1662125E-004
2	0	0	1	1	2,235239390736358E+005	1,6574550E+000	1,6581695E+000	-1,082298315833377E-001	2,000000000000000E+000	-2,1726929E-002	40	-1,7946340E-004
2	0	0	1	1	2,236527365937871E+005	1,5415374E+000	1,5422717E+000	-1,773517803825788E-001	2,000000000000000E+000	-3,9703306E-002	40	-2,7352464E-004
[...]
2	0	0	1	1	2,245526540345910E+005	1,2683313E+000	1,2690842E+000	-6,593559171314234E-002	2,000000000000000E+000	-2,3594901E-001	40	-8,3677820E-005
2	0	0	1	1	2,246814517547424E+005	1,3842489E+000	1,3850276E+000	-3,433598843338115E-002	2,000000000000000E+000	-2,4241959E-001	41	-4,7556292E-005
2	1	0	1	1	2,248103602749113E+005	1,5002667E+000	1,5010576E+000	5,936122493501877E-003	2,000000000000000E+000	-2,4439454E-001	42	8,9104624E-006
2	1	0	1	1	2,249391577950633E+005	1,6161842E+000	1,6169808E+000	8,039374104136288E-002	2,000000000000000E+000	-2,3966992E-001	41	1,2999514E-004
2	1	0	1	1	2,250679555152152E+005	1,7321019E+000	1,7328809E+000	2,894377118653712E-001	2,000000000000000E+000	-2,1678957E-001	40	5,0156110E-004
2	1	0	1	1	2,251967530353661E+005	1,8480197E+000	1,8487791E+000	5,019064433851810E-001	2,000000000000000E+000	-1,6433209E-001	40	9,2791411E-004
2	1	0	1	1	2,253255505555179E+005	1,9639373E+000	1,9646821E+000	4,275435794974519E-001	2,000000000000000E+000	-1,0086394E-001	40	8,3998725E-004
2	1	0	1	1	2,254543483756701E+005	2,0798547E+000	2,0806069E+000	2,290213109262127E-001	2,000000000000000E+000	-5,9357956E-002	40	4,7650334E-004
2	1	0	1	1	2,255831458958220E+005	2,1957724E+000	2,1965044E+000	1,226095373252754E-001	2,000000000000000E+000	-3,7585385E-002	40	2,6931238E-004
2	1	0	1	1	2,257119437159742E+005	2,3116901E+000	2,3124528E+000	7,641248711392667E-002	2,000000000000000E+000	-2,5160283E-002	40	1,7670027E-004
2	1	0	1	1	2,258407412361270E+005	2,4276080E+000	2,4283617E+000	5,491423178474919E-002	2,000000000000000E+000	-1,6851058E-002	40	1,3335161E-004
2	1	0	1	1	2,259696497562965E+005	2,5436258E+000	2,5443878E+000	4,263828836884742E-002	2,000000000000000E+000	-1,0587214E-002	41	1,0848834E-004
2	1	0	1	1	2,260984472764488E+005	2,6595435E+000	2,6602697E+000	3,471792817670236E-002	2,000000000000000E+000	-5,6371698E-003	41	9,2359056E-005
2	1	0	1	1	2,262272447966007E+005	2,7754607E+000	2,7762010E+000	2,903701783772542E-002	2,000000000000000E+000	-1,5661017E-003	41	8,0612597E-005
2	1	0	1	1	2,263560426167534E+005	2,8913791E+000	2,8921227E+000	2,693515801433072E-002	2,000000000000000E+000	2,0622564E-003	41	7,7899786E-005
2	1	0	1	0	2,264828414365915E+005	2,9944057E+000	2,9951410E+000	1,862417222985130E-002	2,000000000000000E+000	5,2943812E-003	41	5,5782024E-005
2	1	0	1	0	2,266116390567429E+005	2,8784878E+000	2,8792369E+000	6,026004673984731E-003	2,000000000000000E+000	6,6215773E-003	41	1,7350296E-005
2	1	0	1	0	2,267404364768950E+005	2,7625701E+000	2,7632997E+000	2,434363040680419E-003	2,000000000000000E+000	7,1148751E-003	42	6,7268747E-006
2	1	0	1	0	2,268697335971245E+005	2,6462026E+000	2,6469355E+000	6,158502684518109E-005	2,000000000000000E+000	7,2678830E-003	43	1,6301159E-007
2	0	0	1	0	2,269994747174238E+005	2,5294359E+000	2,5301642E+000	-1,891454803723392E-003	2,000000000000000E+000	7,1131703E-003	42	-4,7856911E-006
2	0	0	1	0	2,271282720375760E+005	2,4135182E+000	2,4142420E+000	-4,013487429270615E-003	2,000000000000000E+000	6,7188973E-003	42	-9,6895301E-006
2	0	0	1	0	2,272570695577278E+005	2,2976005E+000	2,2983239E+000	-6,628184865898223E-003	2,000000000000000E+000	6,0371552E-003	42	-1,5233715E-005
2	0	0	1	0	2,273858669778798E+005	2,1816826E+000	2,1824193E+000	-1,119224583578404E-002	2,000000000000000E+000	4,8982659E-003	41	-2,4426174E-005
2	0	0	1	0	2,275146644980321E+005	2,0657647E+000	2,0664823E+000	-1,881680612738040E-002	2,000000000000000E+000	2,9924896E-003	41	-3,8884598E-005
2	0	0	0	0	2,275223247992315E+005	2,0588205E+000	2,0595334E+000	-1,966948467340784E-002	2,000000000000000E+000	2,8452259E-003	41	-4,0509960E-005

File: CV_LTO-CB_11_CV_C05.mpt
EC-Lab ASCII FILE
Nb header lines : 57

Cyclic Voltammetry

Run on channel : 5 (SN 6809)
User : Seelab
Electrode connection : standard
Ewe ctrl range : min = 0,00 V, max = 5,00 V
Ewe,I filtering : 50 kHz
Safety Limits :
	Do not start on E overload
Channel : Grounded
Acquisition started on : 04/16/2021 18:38:45
Saved on :
	File : CV_LTO-CB_11_CV_C05.mpr
	Directory : C:\Users\labsuperfici\Desktop\Biologic\Users\Prisca Viviani\210416\
	Host : 10.78.33.0
Device : VSP-300 (SN 0638)
Address : USB
EC-Lab for windows v11.31 (software)
Internet server v11.30 (firmware)
Command interpretor v11.31 (firmware)
Electrode material :
Initial state :
Electrolyte :
Comments :
Cable : standard
Reference electrode : SCE Saturated Calomel Electrode (0,241 V)
Electrode surface area : 0,001 cm²
Characteristic mass : 0,001 g
Equivalent Weight : 0,000 g/eq.
Density : 0,000 g/cm3
Cycle Definition : Charge/Discharge alternance
Ei (V)              0,000
vs.                 Eoc
dE/dt               1,000
dE/dt unit          mV/s
E1 (V)              1,000
vs.                 Ref
Step percent        50
N                   10
E range min (V)     0,000
E range max (V)     5,000
I Range             Auto
I Range min         Unset
I Range max         Unset
I Range init        Unset
Bandwidth           8
E2 (V)              3,000
vs.                 Ref
nc cycles           1
Reverse Scan        1
Ef (V)              0,000
vs.                 Eoc

mode	ox/red	error	control changes	counter inc.	time/s	control/V	Ewe/V	<I>/mA	cycle number	(Q-Qo)/C	I Range	P/W
2	0	0	0	0	2,275225249992623E+005	2,0588205E+000	2,0595219E+000	-2,207347191870213E-002	1,000000000000000E+000	0,0000000E+000	41	-4,5460798E-005
2	0	0	1	0	2,276379929173281E+005	1,9433519E+000	1,9440711E+000	-3,411736752559899E-002	1,000000000000000E+000	-3,0876503E-003	41	-6,6326589E-005
2	0	0	1	0	2,277539106354648E+005	1,8274342E+000	1,8281729E+000	-5,588463209788797E-002	1,000000000000000E+000	-8,2119890E-003	41	-1,0216677E-004
2	0	0	1	0	2,278698283536010E+005	1,7115167E+000	1,7122636E+000	-9,221923223660933E-002	1,000000000000000E+000	-1,6635589E-002	41	-1,5790363E-004
2	0	0	1	0	2,279857460717382E+005	1,5955991E+000	1,5963414E+000	-1,495505585358216E-001	1,000000000000000E+000	-3,0412750E-002	40	-2,3873374E-004
2	0	0	1	0	2,281016637898749E+005	1,4796811E+000	1,4804229E+000	-2,470098726884039E-001	1,000000000000000E+000	-5,2909888E-002	40	-3,6567906E-004
2	0	0	1	0	2,282175815080113E+005	1,3637635E+000	1,3645128E+000	-3,149452960035175E-001	1,000000000000000E+000	-8,6577430E-002	40	-4,2974690E-004
2	0	0	1	0	2,283334991261483E+005	1,2478459E+000	1,2485660E+000	-3,133397300945084E-001	1,000000000000000E+000	-1,2337665E-001	40	-3,9122533E-004
2	0	0	1	0	2,284494168442846E+005	1,1319280E+000	1,1326944E+000	-2,840317038159785E-001	1,000000000000000E+000	-1,5813278E-001	40	-3,2172111E-004
2	0	0	1	0	2,285653345624218E+005	1,0160103E+000	1,0167689E+000	-2,550467923411706E-001	1,000000000000000E+000	-1,8930471E-001	40	-2,5932366E-004
2	0	0	1	0	2,286798538803398E+005	1,0984517E+000	1,0992067E+000	-1,402431341783323E-001	1,000000000000000E+000	-2,1118514E-001	40	-1,5415619E-004
2	0	0	1	0	2,287957715984760E+005	1,2143695E+000	1,2151285E+000	-8,922199747681614E-002	1,000000000000000E+000	-2,2419040E-001	40	-1,0841619E-004
2	0	0	1	0	2,289116893166121E+005	1,3302871E+000	1,3310081E+000	-5,424826342189537E-002	1,000000000000000E+000	-2,3244381E-001	40	-7,2204879E-005
2	0	0	1	0	2,290276071347499E+005	1,4462048E+000	1,4469600E+000	-1,662265272353786E-002	1,000000000000000E+000	-2,3663837E-001	41	-2,4052313E-005
2	1	0	1	0	2,291435248528859E+005	1,5621227E+000	1,5628774E+000	3,819314869452606E-002	1,000000000000000E+000	-2,3564193E-001	41	5,9691210E-005
2	1	0	1	0	2,292594427710231E+005	1,6780404E+000	1,6788102E+000	1,902316033232707E-001	1,000000000000000E+000	-2,2413918E-001	40	3,1936276E-004
2	1	0	1	0	2,293753603891588E+005	1,7939579E+000	1,7947062E+000	4,347239982515942E-001	1,000000000000000E+000	-1,8808009E-001	40	7,8020187E-004
2	1	0	1	0	2,294912782072965E+005	1,9098758E+000	1,9106314E+000	5,350834250925010E-001	1,000000000000000E+000	-1,2878883E-001	40	1,0223472E-003
2	1	0	1	0	2,296071960254335E+005	2,0257933E+000	2,0265436E+000	3,416451792267099E-001	1,000000000000000E+000	-7,6587901E-002	40	6,9235888E-004
2	1	0	1	0	2,297231139435694E+005	2,1417108E+000	2,1424320E+000	1,784165360431886E-001	1,000000000000000E+000	-4,7490202E-002	40	3,8224529E-004
2	1	0	1	0	2,298390317617060E+005	2,2576287E+000	2,2583191E+000	1,026901086064092E-001	1,000000000000000E+000	-3,1796515E-002	40	2,3190703E-004
2	1	0	1	0	2,299549495798431E+005	2,3735464E+000	2,3742642E+000	6,931686297640016E-002	1,000000000000000E+000	-2,2048553E-002	40	1,6457654E-004
2	1	0	1	0	2,300708674979806E+005	2,4894640E+000	2,4901648E+000	5,274581072710338E-002	1,000000000000000E+000	-1,5049520E-002	40	1,3134576E-004
2	1	0	1	0	2,301868852161318E+005	2,6054816E+000	2,6062157E+000	4,169236604226556E-002	1,000000000000000E+000	-9,6040620E-003	41	1,0865930E-004
2	1	0	1	0	2,303028031342691E+005	2,7213993E+000	2,7221358E+000	3,435767811337220E-002	1,000000000000000E+000	-5,1830020E-003	41	9,3526265E-005
2	1	0	1	0	2,304187208524051E+005	2,8373170E+000	2,8380356E+000	3,096675609958688E-002	1,000000000000000E+000	-1,4375875E-003	41	8,7884757E-005
2	1	0	1	0	2,305346386705425E+005	2,9532347E+000	2,9539511E+000	2,806162106347093E-002	1,000000000000000E+000	2,0080900E-003	41	8,2892657E-005
2	1	0	1	1	2,306488576884132E+005	2,9324498E+000	2,9331651E+000	1,048733920624517E-002	1,000000000000000E+000	4,3078130E-003	41	3,0761097E-005
2	1	0	1	1	2,307647754065502E+005	2,8165317E+000	2,8172638E+000	4,180552838912228E-003	1,000000000000000E+000	5,0846837E-003	42	1,1777720E-005
2	1	0	1	1	2,308806930246865E+005	2,7006142E+000	2,7013304E+000	1,422687501026244E-003	1,000000000000000E+000	5,3850985E-003	42	3,8431490E-006
2	0	0	1	1	2,309966106428226E+005	2,5846965E+000	2,5854392E+000	-1,292003179347969E-003	1,000000000000000E+000	5,3713834E-003	42	-3,3403958E-006
2	0	0	1	1	2,311125285609602E+005	2,4687786E+000	2,4694972E+000	-3,269417334486213E-003	1,000000000000000E+000	5,1062559E-003	42	-8,0738173E-006
2	0	0	1	1	2,312284462790964E+005	2,3528612E+000	2,3535821E+000	-5,627707320376013E-003	1,000000000000000E+000	4,5766663E-003	42	-1,3245271E-005
2	0	0	1	1	2,313443638972333E+005	2,2369435E+000	2,2376235E+000	-9,544095468604713E-003	1,000000000000000E+000	3,7012035E-003	42	-2,1356092E-005
2	0	0	1	1	2,314602815153697E+005	2,1210260E+000	2,1217692E+000	-1,601279392159832E-002	1,000000000000000E+000	2,2383905E-003	41	-3,3975452E-005
2	0	0	1	1	2,315751000333345E+005	2,0062072E+000	2,0069315E+000	-2,649155255244358E-002	2,000000000000000E+000	-1,6997416E-004	41	-5,3166732E-005
2	0	0	1	1	2,316910178514710E+005	1,8902894E+000	1,8910190E+000	-4,309464418576536E-002	2,000000000000000E+000	-4,1457103E-003	41	-8,1492792E-005
2	0	0	1	1	2,318069354696081E+005	1,7743721E+000	1,7750865E+000	-7,073178593282980E-002	2,000000000000000E+000	-1,0617525E-002	41	-1,2555505E-004
2	0	0	1	1	2,319228531877445E+005	1,6584542E+000	1,6591867E+000	-1,160056847071067E-001	2,000000000000000E+000	-2,1259023E-002	40	-1,9247510E-004
2	0	0	1	1	2,320387710058810E+005	1,5425365E+000	1,5432903E+000	-1,890562157008295E-001	2,000000000000000E+000	-3,8577884E-002	40	-2,9176861E-004
[...]
2	0	0	1	1	2,328486965326038E+005	1,2673318E+000	1,2680364E+000	-7,259875168509744E-002	2,000000000000000E+000	-2,2822437E-001	40	-9,2057860E-005
2	0	0	1	1	2,329646142507410E+005	1,3832496E+000	1,3839622E+000	-3,831329758980329E-002	2,000000000000000E+000	-2,3466322E-001	41	-5,3024152E-005
2	1	0	1	1	2,330805319688766E+005	1,4991672E+000	1,4999102E+000	5,408206291056733E-003	2,000000000000000E+000	-2,3671222E-001	42	8,1118242E-006
2	1	0	1	1	2,331964497870139E+005	1,6150850E+000	1,6158104E+000	8,513836636407190E-002	2,000000000000000E+000	-2,3224078E-001	41	1,3756746E-004
2	1	0	1	1	2,333123676051502E+005	1,7310028E+000	1,7317315E+000	3,069154953700952E-001	2,000000000000000E+000	-2,1036084E-001	40	5,3149526E-004
2	1	0	1	1	2,334282853232869E+005	1,8469205E+000	1,8476409E+000	5,290171529666414E-001	2,000000000000000E+000	-1,6061150E-001	40	9,7743375E-004
2	1	0	1	1	2,335442031414239E+005	1,9628382E+000	1,9635968E+000	4,644849576997045E-001	2,000000000000000E+000	-9,9488132E-002	40	9,1206119E-004
2	1	0	1	1	2,336601211595605E+005	2,0787559E+000	2,0795014E+000	2,499207707811067E-001	2,000000000000000E+000	-5,8747448E-002	40	5,1971059E-004
2	1	0	1	1	2,337760388776977E+005	2,1946735E+000	2,1953773E+000	1,341234610545495E-001	2,000000000000000E+000	-3,7337732E-002	40	2,9445160E-004
2	1	0	1	1	2,338919566958337E+005	2,3105910E+000	2,3112948E+000	8,342175540432706E-002	2,000000000000000E+000	-2,5113363E-002	40	1,9281227E-004
2	1	0	1	1	2,340078744139710E+005	2,4265089E+000	2,4272363E+000	5,985140223706986E-002	2,000000000000000E+000	-1,6956037E-002	40	1,4527350E-004
2	1	0	1	1	2,341237924321075E+005	2,5424261E+000	2,5431418E+000	4,647298872905772E-002	2,000000000000000E+000	-1,0814065E-002	41	1,1818740E-004
2	1	0	1	1	2,342397102502435E+005	2,6583445E+000	2,6590350E+000	3,785910583291963E-002	2,000000000000000E+000	-5,9590158E-003	41	1,0066869E-004
2	1	0	1	1	2,343556280683805E+005	2,7742620E+000	2,7749593E+000	3,160940922751210E-002	2,000000000000000E+000	-1,9642750E-003	41	8,7714827E-005
2	1	0	1	1	2,344715458865179E+005	2,8901796E+000	2,8908739E+000	2,926417642779867E-002	2,000000000000000E+000	1,5829318E-003	41	8,4599043E-005
2	1	0	1	0	2,345858650044044E+005	2,9954050E+000	2,9961329E+000	2,058410016343493E-002	2,000000000000000E+000	4,7526746E-003	41	6,1672697E-005
2	1	0	1	0	2,347017827225402E+005	2,8794873E+000	2,8801949E+000	6,482996999003282E-003	2,000000000000000E+000	6,0505131E-003	41	1,8672295E-005
2	1	0	1	0	2,348177005406776E+005	2,7635694E+000	2,7642460E+000	2,547234705422695E-003	2,000000000000000E+000	6,5228264E-003	42	7,0411834E-006
2	1	0	1	0	2,349336182588143E+005	2,6476517E+000	2,6483502E+000	-7,847260095996755E-007	2,000000000000000E+000	6,6601937E-003	42	-2,0782294E-009
2	0	0	1	0	2,350495359769510E+005	2,5317340E+000	2,5324349E+000	-2,137637929102459E-003	2,000000000000000E+000	6,4997850E-003	42	-5,4134289E-006
2	0	0	1	0	2,351654535950870E+005	2,4158165E+000	2,4165132E+000	-4,461437495270955E-003	2,000000000000000E+000	6,1041010E-003	42	-1,0781123E-005
2	0	0	1	0	2,352813713132243E+005	2,2998989E+000	2,3005843E+000	-7,260108225562029E-003	2,000000000000000E+000	5,4270755E-003	42	-1,6702492E-005
2	0	0	1	0	2,353972890313612E+005	2,1839807E+000	2,1847026E+000	-1,218002165349444E-002	2,000000000000000E+000	4,3059071E-003	41	-2,6609725E-005
2	0	0	1	0	2,355132068494973E+005	2,0680635E+000	2,0687814E+000	-2,041761302453715E-002	2,000000000000000E+000	2,4400793E-003	41	-4,2239579E-005
2	0	0	0	0	2,355223994509359E+005	2,0588205E+000	2,0595257E+000	-2,153559340300359E-002	2,000000000000000E+000	2,2473342E-003	41	-4,4353110E-005