Folder: Randles-Sevcik/Dati/210416_2 (part 4)

File: CV_LTO-CB_grafite nuova_15 layers__08_CV_C01.mpt
EC-Lab ASCII FILE
Nb header lines : 57

Cyclic Voltammetry

Run on channel : 1 (SN 6806)
User : Seelab
Electrode connection : standard
Ewe ctrl range : min = 0,00 V, max = 5,00 V
Ewe,I filtering : 50 kHz
Safety Limits :
	Do not start on E overload
Channel : Grounded
Acquisition started on : 04/16/2021 18:47:00
Saved on :
	File : CV_LTO-CB_grafite nuova_15 layers__08_CV_C01.mpr
	Directory : C:\Users\labsuperfici\Desktop\Biologic\Users\Prisca Viviani\210416_2\
	Host : 10.78.33.0
Device : VSP-300 (SN 0638)
Address : USB
EC-Lab for windows v11.31 (software)
Internet server v11.30 (firmware)
Command interpretor v11.31 (firmware)
Electrode material :
Initial state :
Electrolyte :
Comments :
Cable : standard
Reference electrode : SCE Saturated Calomel Electrode (0,241 V)
Electrode surface area : 0,001 cm²
Characteristic mass : 0,001 g
Equivalent Weight : 0,000 g/eq.
Density : 0,000 g/cm3
Cycle Definition : Charge/Discharge alternance
Ei (V)              0,000
vs.                 Eoc
dE/dt               0,700
dE/dt unit          mV/s
E1 (V)              1,000
vs.                 Ref
Step percent        50
N                   10
E range min (V)     0,000
E range max (V)     5,000
I Range             Auto
I Range min         Unset
I Range max         Unset
I Range init        Unset
Bandwidth           8
E2 (V)              3,000
vs.                 Ref
nc cycles           1
Reverse Scan        1
Ef (V)              0,000
vs.                 Eoc

mode	ox/red	error	control changes	counter inc.	time/s	control/V	Ewe/V	<I>/mA	cycle number	(Q-Qo)/C	I Range	P/W
2	0	0	0	0	1,972854100683085E+005	2,2496376E+000	2,2504148E+000	-9,011362679302692E-003	1,000000000000000E+000	0,0000000E+000	41	-2,0279303E-005
2	0	0	1	0	1,974504527941332E+005	2,1341074E+000	2,1348693E+000	-1,183857396982907E-002	1,000000000000000E+000	-1,6879441E-003	41	-2,5273808E-005
2	0	0	1	0	1,976161376200572E+005	2,0181274E+000	2,0189347E+000	-1,663431144459946E-002	1,000000000000000E+000	-4,0514898E-003	41	-3,3583590E-005
2	0	0	1	0	1,977818231459805E+005	1,9021479E+000	1,9029289E+000	-2,314361541804129E-002	1,000000000000000E+000	-7,3552853E-003	41	-4,4040655E-005
2	0	0	1	0	1,979475082719037E+005	1,7861682E+000	1,7869600E+000	-3,509125483176655E-002	1,000000000000000E+000	-1,2084248E-002	41	-6,2706669E-005
2	0	0	1	0	1,981131935978262E+005	1,6701884E+000	1,6710328E+000	-6,177164437222160E-002	1,000000000000000E+000	-1,9871132E-002	41	-1,0322245E-004
2	0	0	1	0	1,982788789237496E+005	1,5542089E+000	1,5549846E+000	-1,231723731573212E-001	1,000000000000000E+000	-3,4358356E-002	40	-1,9153114E-004
2	0	0	1	0	1,984445641496730E+005	1,4382290E+000	1,4390005E+000	-2,349216202429257E-001	1,000000000000000E+000	-6,6338874E-002	40	-3,3805231E-004
2	0	0	1	0	1,986102493755972E+005	1,3222494E+000	1,3230428E+000	-2,221220473583911E-001	1,000000000000000E+000	-1,0466192E-001	40	-2,9387698E-004
2	0	0	1	0	1,987759346015211E+005	1,2062696E+000	1,2070373E+000	-1,901312283761367E-001	1,000000000000000E+000	-1,3871224E-001	40	-2,2949549E-004
2	0	0	1	0	1,989416197274444E+005	1,0902900E+000	1,0910627E+000	-1,711233110391000E-001	1,000000000000000E+000	-1,6848056E-001	40	-1,8670625E-004
2	0	0	1	0	1,991057345531211E+005	1,0245013E+000	1,0252734E+000	-1,265318375267681E-001	1,000000000000000E+000	-1,9513309E-001	40	-1,2972973E-004
2	0	0	1	0	1,992714198790458E+005	1,1404811E+000	1,1412239E+000	-7,479569315980210E-002	1,000000000000000E+000	-2,1094324E-001	40	-8,5358632E-005
2	0	0	1	0	1,994371053049685E+005	1,2564609E+000	1,2572104E+000	-5,110927783467811E-002	1,000000000000000E+000	-2,2120081E-001	40	-6,4255117E-005
2	0	0	1	0	1,996027906308924E+005	1,3724406E+000	1,3732255E+000	-3,313735582989802E-002	1,000000000000000E+000	-2,2816363E-001	41	-4,5505061E-005
2	0	0	1	0	1,997684759568153E+005	1,4884202E+000	1,4891869E+000	-8,889527314498075E-003	1,000000000000000E+000	-2,3183003E-001	41	-1,3238167E-005
2	1	0	1	0	1,999341613827380E+005	1,6043999E+000	1,6050595E+000	7,472603133276046E-002	1,000000000000000E+000	-2,2871380E-001	41	1,1993973E-004
2	1	0	1	0	2,000998468086615E+005	1,7203796E+000	1,7210603E+000	4,106162918391538E-001	1,000000000000000E+000	-1,8895882E-001	40	7,0669537E-004
2	1	0	1	0	2,002655322345850E+005	1,8363594E+000	1,8370516E+000	4,491537347956802E-001	1,000000000000000E+000	-1,0956954E-001	40	8,2511862E-004
2	1	0	1	0	2,004312175605093E+005	1,9523388E+000	1,9530703E+000	1,744709870693355E-001	1,000000000000000E+000	-5,8890849E-002	40	3,4075411E-004
2	1	0	1	0	2,005969028864328E+005	2,0683186E+000	2,0690875E+000	7,158872552735102E-002	1,000000000000000E+000	-4,0468507E-002	40	1,4812333E-004
2	1	0	1	0	2,007627315123787E+005	2,1843982E+000	2,1851275E+000	4,446700540423681E-002	1,000000000000000E+000	-3,1227071E-002	41	9,7166077E-005
2	1	0	1	0	2,009284167383020E+005	2,3003781E+000	2,3011389E+000	3,449035730066774E-002	1,000000000000000E+000	-2,4760958E-002	41	7,9367099E-005
2	1	0	1	0	2,010941021642257E+005	2,4163578E+000	2,4171035E+000	3,018200701709850E-002	1,000000000000000E+000	-1,9423345E-002	41	7,2953037E-005
2	1	0	1	0	2,012597875901479E+005	2,5323372E+000	2,5331030E+000	2,708475227270779E-002	1,000000000000000E+000	-1,4648856E-002	41	6,8608468E-005
2	1	0	1	0	2,014254730160711E+005	2,6483171E+000	2,6491122E+000	2,547130667828512E-002	1,000000000000000E+000	-1,0290673E-002	41	6,7476351E-005
2	1	0	1	0	2,015911584419943E+005	2,7642968E+000	2,7650888E+000	2,361652675751813E-002	1,000000000000000E+000	-6,2401188E-003	41	6,5301792E-005
2	1	0	1	0	2,017568436679184E+005	2,8802764E+000	2,8810837E+000	2,403391890235831E-002	1,000000000000000E+000	-2,2292396E-003	41	6,9243732E-005
2	1	0	1	0	2,019225290938427E+005	2,9962564E+000	2,9970839E+000	2,400501071875220E-002	1,000000000000000E+000	1,7493766E-003	41	7,1945033E-005
2	1	0	1	1	2,020857863193848E+005	2,8894744E+000	2,8902538E+000	3,604119737213522E-003	1,000000000000000E+000	3,1988912E-003	42	1,0416820E-005
2	0	0	1	1	2,022516141453306E+005	2,7733953E+000	2,7742314E+000	-1,758013234380003E-004	1,000000000000000E+000	3,4094881E-003	43	-4,8771358E-007
2	0	0	1	1	2,024172991712538E+005	2,6574154E+000	2,6582320E+000	-2,375759201894584E-003	1,000000000000000E+000	3,1819020E-003	42	-6,3153193E-006
2	0	0	1	1	2,025829843971779E+005	2,5414357E+000	2,5423129E+000	-4,512377654690460E-003	1,000000000000000E+000	2,5275541E-003	42	-1,1471876E-005
2	0	0	1	1	2,027486696231018E+005	2,4254560E+000	2,4263117E+000	-6,578792567977915E-003	1,000000000000000E+000	1,5719575E-003	42	-1,5962201E-005
2	0	0	1	1	2,029143546490250E+005	2,3094764E+000	2,3103566E+000	-7,829587055421361E-003	1,000000000000000E+000	3,5486949E-004	42	-1,8089138E-005
2	0	0	1	1	2,030778972746124E+005	2,1949964E+000	2,1957698E+000	-1,008916189470908E-002	2,000000000000000E+000	-1,1282264E-003	41	-2,2153477E-005
2	0	0	1	1	2,032435823005359E+005	2,0790169E+000	2,0797892E+000	-1,376272290106421E-002	2,000000000000000E+000	-3,1156037E-003	41	-2,8623563E-005
2	0	0	1	1	2,034092676264590E+005	1,9630371E+000	1,9638205E+000	-1,927752646838685E-002	2,000000000000000E+000	-5,8650295E-003	41	-3,7857601E-005
2	0	0	1	1	2,035749529523831E+005	1,8470575E+000	1,8478521E+000	-2,740935516448617E-002	2,000000000000000E+000	-9,6887918E-003	41	-5,0648436E-005
[...]
2	0	0	1	1	2,048987215595015E+005	1,0794917E+000	1,0802807E+000	-9,372338448799677E-002	2,000000000000000E+000	-2,0250149E-001	40	-1,0124756E-004
2	0	0	1	1	2,050644068854252E+005	1,1954714E+000	1,1962218E+000	-6,177647649670193E-002	2,000000000000000E+000	-2,1504416E-001	40	-7,3898373E-005
2	0	0	1	1	2,052300924113498E+005	1,3114513E+000	1,3122699E+000	-4,237896243962552E-002	2,000000000000000E+000	-2,2356763E-001	41	-5,5612640E-005
2	0	0	1	1	2,053957776372731E+005	1,4274310E+000	1,4282088E+000	-2,335884410438898E-002	2,000000000000000E+000	-2,2905044E-001	41	-3,3361306E-005
2	1	0	1	1	2,055616058632187E+005	1,5435107E+000	1,5442420E+000	1,254010250431520E-002	2,000000000000000E+000	-2,3040816E-001	41	1,9364954E-005
2	1	0	1	1	2,057272911891425E+005	1,6594902E+000	1,6602032E+000	2,306078844518251E-001	2,000000000000000E+000	-2,1558577E-001	40	3,8285594E-004
2	1	0	1	1	2,058929766150652E+005	1,7754698E+000	1,7761496E+000	5,037204717120352E-001	2,000000000000000E+000	-1,5056668E-001	40	8,9468295E-004
2	1	0	1	1	2,060586621409878E+005	1,8914498E+000	1,8921735E+000	3,047723987296935E-001	2,000000000000000E+000	-7,8350835E-002	40	5,7668227E-004
2	1	0	1	1	2,062243475669115E+005	2,0074291E+000	2,0081859E+000	1,058369586100391E-001	2,000000000000000E+000	-4,7432445E-002	40	2,1254028E-004
2	1	0	1	1	2,063900330928346E+005	2,1234090E+000	2,1241906E+000	5,452769219299788E-002	2,000000000000000E+000	-3,5020456E-002	40	1,1582721E-004
2	1	0	1	1	2,065558614187804E+005	2,2394888E+000	2,2402415E+000	3,847877065386940E-002	2,000000000000000E+000	-2,7481642E-002	41	8,6201740E-005
2	1	0	1	1	2,067215466447045E+005	2,3554683E+000	2,3562272E+000	3,171700517771792E-002	2,000000000000000E+000	-2,1701150E-002	41	7,4732467E-005
2	1	0	1	1	2,068872320706288E+005	2,4714482E+000	2,4721980E+000	2,841923418678283E-002	2,000000000000000E+000	-1,6687205E-002	41	7,0257971E-005
2	1	0	1	1	2,070529172965521E+005	2,5874279E+000	2,5882213E+000	2,568545336070466E-002	2,000000000000000E+000	-1,2185768E-002	41	6,6479639E-005
2	1	0	1	1	2,072186029224754E+005	2,7034075E+000	2,7041943E+000	2,389299986827270E-002	2,000000000000000E+000	-7,9981117E-003	41	6,4611311E-005
2	1	0	1	1	2,073842883483982E+005	2,8193872E+000	2,8202324E+000	2,384441397272552E-002	2,000000000000000E+000	-4,0597110E-003	41	6,7246787E-005
2	1	0	1	1	2,075499735743213E+005	2,9353669E+000	2,9361606E+000	2,345816371933046E-002	2,000000000000000E+000	-8,4804611E-005	41	6,8876936E-005
2	1	0	1	0	2,077130879998440E+005	2,9504642E+000	2,9513125E+000	7,939212986979843E-003	2,000000000000000E+000	2,9522241E-003	41	2,3431099E-005
2	1	0	1	0	2,078787734257663E+005	2,8344846E+000	2,8353190E+000	1,350930870145196E-003	2,000000000000000E+000	3,5766987E-003	42	3,8303201E-006
2	0	0	1	0	2,080446010517115E+005	2,7184050E+000	2,7192509E+000	-1,156510790939372E-003	2,000000000000000E+000	3,5400034E-003	42	-3,1448430E-006
2	0	0	1	0	2,082102861776352E+005	2,6024249E+000	2,6032913E+000	-4,007291395228013E-003	2,000000000000000E+000	3,1022150E-003	42	-1,0432147E-005
2	0	0	1	0	2,083759713035580E+005	2,4864457E+000	2,4873469E+000	-5,521673325442601E-003	2,000000000000000E+000	2,3078432E-003	42	-1,3734317E-005
2	0	0	1	0	2,085416563294819E+005	2,3704658E+000	2,3713224E+000	-7,053924821469527E-003	2,000000000000000E+000	1,2109283E-003	42	-1,6727130E-005
2	0	0	1	0	2,087073415554063E+005	2,2544861E+000	2,2553694E+000	-8,778073187874519E-003	2,000000000000000E+000	-1,1866336E-004	42	-1,9797797E-005
2	0	0	1	0	2,087141762564736E+005	2,2496376E+000	2,2505522E+000	-9,333027046173836E-003	2,000000000000000E+000	-1,8029088E-004	42	-2,1004464E-005

File: CV_LTO-CB_grafite nuova_15 layers__09_CV_C01.mpt
EC-Lab ASCII FILE
Nb header lines : 57

Cyclic Voltammetry

Run on channel : 1 (SN 6806)
User : Seelab
Electrode connection : standard
Ewe ctrl range : min = 0,00 V, max = 5,00 V
Ewe,I filtering : 50 kHz
Safety Limits :
	Do not start on E overload
Channel : Grounded
Acquisition started on : 04/16/2021 18:47:00
Saved on :
	File : CV_LTO-CB_grafite nuova_15 layers__09_CV_C01.mpr
	Directory : C:\Users\labsuperfici\Desktop\Biologic\Users\Prisca Viviani\210416_2\
	Host : 10.78.33.0
Device : VSP-300 (SN 0638)
Address : USB
EC-Lab for windows v11.31 (software)
Internet server v11.30 (firmware)
Command interpretor v11.31 (firmware)
Electrode material :
Initial state :
Electrolyte :
Comments :
Cable : standard
Reference electrode : SCE Saturated Calomel Electrode (0,241 V)
Electrode surface area : 0,001 cm²
Characteristic mass : 0,001 g
Equivalent Weight : 0,000 g/eq.
Density : 0,000 g/cm3
Cycle Definition : Charge/Discharge alternance
Ei (V)              0,000
vs.                 Eoc
dE/dt               0,800
dE/dt unit          mV/s
E1 (V)              1,000
vs.                 Ref
Step percent        50
N                   10
E range min (V)     0,000
E range max (V)     5,000
I Range             Auto
I Range min         Unset
I Range max         Unset
I Range init        Unset
Bandwidth           8
E2 (V)              3,000
vs.                 Ref
nc cycles           1
Reverse Scan        1
Ef (V)              0,000
vs.                 Eoc

mode	ox/red	error	control changes	counter inc.	time/s	control/V	Ewe/V	<I>/mA	cycle number	(Q-Qo)/C	I Range	P/W
2	0	0	1	0	2,087144012565110E+005	2,2496376E+000	2,2504070E+000	-1,038297358900309E-002	1,000000000000000E+000	0,0000000E+000	41	-2,3365916E-005
2	0	0	1	0	2,088588135791050E+005	2,1341071E+000	2,1348917E+000	-1,314191543311201E-002	1,000000000000000E+000	-1,6472499E-003	41	-2,8056567E-005
2	0	0	1	0	2,090037880017878E+005	2,0181274E+000	2,0189056E+000	-1,835049127423326E-002	1,000000000000000E+000	-3,9353855E-003	41	-3,7047910E-005
2	0	0	1	0	2,091487627244717E+005	1,9021477E+000	1,9029557E+000	-2,538014144381234E-002	1,000000000000000E+000	-7,1115992E-003	41	-4,8297283E-005
2	0	0	1	0	2,092937374471531E+005	1,7861679E+000	1,7869771E+000	-3,823830055053767E-002	1,000000000000000E+000	-1,1635200E-002	41	-6,8330963E-005
2	0	0	1	0	2,094387120698374E+005	1,6701884E+000	1,6710476E+000	-6,717960388091759E-002	1,000000000000000E+000	-1,9044070E-002	41	-1,1226031E-004
2	0	0	1	0	2,095836866925198E+005	1,5542086E+000	1,5549692E+000	-1,331638142231362E-001	1,000000000000000E+000	-3,2814138E-002	40	-2,0706563E-004
2	0	0	1	0	2,097286613152018E+005	1,4382290E+000	1,4389915E+000	-2,495874808930267E-001	1,000000000000000E+000	-6,2567711E-002	40	-3,5915428E-004
2	0	0	1	0	2,098736360378875E+005	1,3222493E+000	1,3230120E+000	-2,381466584970351E-001	1,000000000000000E+000	-9,8340832E-002	40	-3,1507088E-004
2	0	0	1	0	2,100186105605689E+005	1,2062696E+000	1,2070360E+000	-2,052861282603726E-001	1,000000000000000E+000	-1,3042434E-001	40	-2,4778774E-004
2	0	0	1	0	2,101635851832516E+005	1,0902900E+000	1,0910537E+000	-1,857591745357419E-001	1,000000000000000E+000	-1,5862280E-001	40	-2,0267324E-004
2	0	0	1	0	2,103071860057201E+005	1,0245016E+000	1,0252863E+000	-1,373534658625472E-001	1,000000000000000E+000	-1,8395787E-001	40	-1,4082663E-004
2	0	0	1	0	2,104521605284018E+005	1,1404811E+000	1,1412480E+000	-8,129933633472664E-002	1,000000000000000E+000	-1,9898334E-001	40	-9,2782706E-005
2	0	0	1	0	2,105971352510867E+005	1,2564608E+000	1,2572473E+000	-5,560897573138701E-002	1,000000000000000E+000	-2,0874515E-001	40	-6,9914233E-005
2	0	0	1	0	2,107421100737687E+005	1,3724406E+000	1,3732028E+000	-3,604213517587256E-002	1,000000000000000E+000	-2,1536785E-001	41	-4,9493159E-005
2	0	0	1	0	2,108870847964520E+005	1,4884201E+000	1,4891797E+000	-9,685567448758176E-003	1,000000000000000E+000	-2,1885513E-001	41	-1,4423551E-005
2	1	0	1	0	2,110321844191554E+005	1,6044998E+000	1,6051624E+000	7,789601260265699E-002	1,000000000000000E+000	-2,1598426E-001	41	1,2503575E-004
2	1	0	1	0	2,111771592418368E+005	1,7204796E+000	1,7211893E+000	4,292512468434277E-001	1,000000000000000E+000	-1,7953177E-001	40	7,3882262E-004
2	1	0	1	0	2,113221340645212E+005	1,8364592E+000	1,8371453E+000	4,826567528796542E-001	1,000000000000000E+000	-1,0627850E-001	40	8,8671059E-004
2	1	0	1	0	2,114671087872033E+005	1,9524390E+000	1,9531425E+000	1,964585059140211E-001	1,000000000000000E+000	-5,7620365E-002	40	3,8371145E-004
2	1	0	1	0	2,116120834098854E+005	2,0684185E+000	2,0691350E+000	8,062508105746224E-002	1,000000000000000E+000	-3,9459378E-002	40	1,6682417E-004
2	1	0	1	0	2,117570583325713E+005	2,1843984E+000	2,1851749E+000	5,009004734975830E-002	1,000000000000000E+000	-3,0365167E-002	40	1,0945552E-004
2	1	0	1	0	2,119021580552715E+005	2,3004780E+000	2,3012342E+000	3,796884069718179E-002	1,000000000000000E+000	-2,4077389E-002	41	8,7375200E-005
2	1	0	1	0	2,120471329779550E+005	2,4164577E+000	2,4172127E+000	3,289789701840597E-002	1,000000000000000E+000	-1,8965913E-002	41	7,9521218E-005
2	1	0	1	0	2,121921075006382E+005	2,5324373E+000	2,5332496E+000	2,940908556306976E-002	1,000000000000000E+000	-1,4422033E-002	41	7,4500553E-005
2	1	0	1	0	2,123370822233194E+005	2,6484168E+000	2,6492133E+000	2,766135328046759E-002	1,000000000000000E+000	-1,0283156E-002	41	7,3280826E-005
2	1	0	1	0	2,124820569460047E+005	2,7643967E+000	2,7652173E+000	2,563885913868780E-002	1,000000000000000E+000	-6,4297472E-003	41	7,0897018E-005
2	1	0	1	0	2,126270317686869E+005	2,8803766E+000	2,8811789E+000	2,606589858957303E-002	1,000000000000000E+000	-2,6245401E-003	41	7,5100514E-005
2	1	0	1	0	2,127720064913696E+005	2,9963560E+000	2,9971817E+000	2,604228117285801E-002	1,000000000000000E+000	1,1553459E-003	41	7,8053446E-005
2	1	0	1	1	2,129147318137016E+005	2,8894749E+000	2,8902638E+000	3,807763002452703E-003	1,000000000000000E+000	2,5074726E-003	42	1,1005440E-005
2	0	0	1	1	2,130597064363828E+005	2,7734952E+000	2,7743430E+000	-1,895177748337654E-004	1,000000000000000E+000	2,6940466E-003	42	-5,2578730E-007
2	0	0	1	1	2,132046809590678E+005	2,6575153E+000	2,6583819E+000	-2,662882916630806E-003	1,000000000000000E+000	2,4683124E-003	42	-7,0789597E-006
2	0	0	1	1	2,133496553817499E+005	2,5415356E+000	2,5424061E+000	-5,013289355077905E-003	1,000000000000000E+000	1,8407976E-003	42	-1,2745817E-005
2	0	0	1	1	2,134946300044321E+005	2,4255559E+000	2,4264331E+000	-7,184761957687406E-003	1,000000000000000E+000	9,2756888E-004	42	-1,7433344E-005
2	0	0	1	1	2,136396044271174E+005	2,3095765E+000	2,3104990E+000	-8,580612148028743E-003	1,000000000000000E+000	-2,3480383E-004	42	-1,9825495E-005
2	0	0	1	1	2,137828294495248E+005	2,1949966E+000	2,1958148E+000	-1,094637662647896E-002	2,000000000000000E+000	-1,6471518E-003	41	-2,4036217E-005
2	0	0	1	1	2,139278038722081E+005	2,0790167E+000	2,0798018E+000	-1,484249629727531E-002	2,000000000000000E+000	-3,5259803E-003	41	-3,0869451E-005
2	0	0	1	1	2,140727784948919E+005	1,9630370E+000	1,9638889E+000	-2,052603513339130E-002	2,000000000000000E+000	-6,1010234E-003	41	-4,0310853E-005
2	0	0	1	1	2,142177531175727E+005	1,8470572E+000	1,8478621E+000	-2,886620465653145E-002	2,000000000000000E+000	-9,6488539E-003	41	-5,3340766E-005
[...]
2	0	0	1	1	2,153760512988023E+005	1,0794919E+000	1,0803112E+000	-9,843694134885661E-002	2,000000000000000E+000	-1,8355441E-001	40	-1,0634253E-004
2	0	0	1	1	2,155210259214877E+005	1,1954714E+000	1,1962440E+000	-6,491010210489501E-002	2,000000000000000E+000	-1,9509429E-001	40	-7,7648321E-005
2	0	0	1	1	2,156660007441691E+005	1,3114512E+000	1,3122761E+000	-4,446301917582063E-002	2,000000000000000E+000	-2,0291959E-001	41	-5,8347759E-005
2	0	0	1	1	2,158109753668522E+005	1,4274307E+000	1,4282093E+000	-2,445874224285965E-002	2,000000000000000E+000	-2,0795032E-001	41	-3,4932204E-005
2	1	0	1	1	2,159560750895559E+005	1,5435104E+000	1,5442708E+000	1,248874630622902E-002	2,000000000000000E+000	-2,0921411E-001	41	1,9286006E-005
2	1	0	1	1	2,161010498122368E+005	1,6594901E+000	1,6602036E+000	2,271229463538901E-001	2,000000000000000E+000	-1,9651490E-001	40	3,7707033E-004
2	1	0	1	1	2,162460247349213E+005	1,7754699E+000	1,7761797E+000	5,003923398941197E-001	2,000000000000000E+000	-1,4036988E-001	40	8,8878669E-004
2	1	0	1	1	2,163909994576041E+005	1,8914498E+000	1,8921609E+000	3,244784536157055E-001	2,000000000000000E+000	-7,5619638E-002	40	6,1396544E-004
2	1	0	1	1	2,165359742802861E+005	2,0074294E+000	2,0081758E+000	1,164038085053558E-001	2,000000000000000E+000	-4,6190195E-002	40	2,3375932E-004
2	1	0	1	1	2,166809489029716E+005	2,1234090E+000	2,1241679E+000	5,994424891465400E-002	2,000000000000000E+000	-3,4250341E-002	40	1,2733164E-004
2	1	0	1	1	2,168260487256723E+005	2,2394886E+000	2,2402115E+000	4,235954113049334E-002	2,000000000000000E+000	-2,6981283E-002	41	9,4894327E-005
2	1	0	1	1	2,169710234483555E+005	2,3554683E+000	2,3562202E+000	3,497331848795471E-002	2,000000000000000E+000	-2,1412082E-002	41	8,2404840E-005
2	1	0	1	1	2,171159981710388E+005	2,4714479E+000	2,4722197E+000	3,139495207517662E-002	2,000000000000000E+000	-1,6574718E-002	41	7,7615216E-005
2	1	0	1	1	2,172609727937202E+005	2,5874276E+000	2,5882320E+000	2,836791475528722E-002	2,000000000000000E+000	-1,2227587E-002	41	7,3422743E-005
2	1	0	1	1	2,174059476164053E+005	2,7034073E+000	2,7042050E+000	2,647566643754412E-002	2,000000000000000E+000	-8,1799654E-003	41	7,1595634E-005
2	1	0	1	1	2,175509224390874E+005	2,8193870E+000	2,8202093E+000	2,626105214427933E-002	2,000000000000000E+000	-4,3732971E-003	41	7,4061660E-005
2	1	0	1	1	2,176958971617701E+005	2,9353669E+000	2,9361925E+000	2,586235590488734E-002	2,000000000000000E+000	-5,4323958E-004	41	7,5936856E-005
2	1	0	1	0	2,178386225841022E+005	2,9504640E+000	2,9513156E+000	8,698338240322012E-003	2,000000000000000E+000	2,3758921E-003	41	2,5671541E-005
2	1	0	1	0	2,179835972067832E+005	2,8344843E+000	2,8353102E+000	1,549899881036449E-003	2,000000000000000E+000	2,9882295E-003	42	4,3944469E-006
2	0	0	1	0	2,181285716294679E+005	2,7185044E+000	2,7193267E+000	-1,150995191647387E-003	2,000000000000000E+000	2,9703500E-003	42	-3,1299319E-006
2	0	0	1	0	2,182735462521507E+005	2,6025250E+000	2,6034100E+000	-4,279555556766373E-003	2,000000000000000E+000	2,5645844E-003	42	-1,1141437E-005
2	0	0	1	0	2,184185206748322E+005	2,4865456E+000	2,4874263E+000	-5,995159335030878E-003	2,000000000000000E+000	1,8167408E-003	42	-1,4912517E-005
2	0	0	1	0	2,185634951975178E+005	2,3705659E+000	2,3714328E+000	-7,690709311561003E-003	2,000000000000000E+000	7,7768916E-004	42	-1,8238001E-005
2	0	0	1	0	2,187084700201993E+005	2,2545860E+000	2,2553928E+000	-9,538191235314339E-003	2,000000000000000E+000	-4,8790040E-004	41	-2,1512367E-005
2	0	0	0	0	2,187145752211553E+005	2,2496376E+000	2,2504184E+000	-1,014119699665400E-002	2,000000000000000E+000	-5,4768886E-004	41	-2,2821936E-005