Folder: Randles-Sevcik/Dati/210416

File: CV_LTO-CB_02_CV_C05.mpt
EC-Lab ASCII FILE
Nb header lines : 57

Cyclic Voltammetry

Run on channel : 5 (SN 6809)
User : Seelab
Electrode connection : standard
Ewe ctrl range : min = 0,00 V, max = 5,00 V
Ewe,I filtering : 50 kHz
Safety Limits :
	Do not start on E overload
Channel : Grounded
Acquisition started on : 04/16/2021 18:38:45
Saved on :
	File : CV_LTO-CB_02_CV_C05.mpr
	Directory : C:\Users\labsuperfici\Desktop\Biologic\Users\Prisca Viviani\210416\
	Host : 10.78.33.0
Device : VSP-300 (SN 0638)
Address : USB
EC-Lab for windows v11.31 (software)
Internet server v11.30 (firmware)
Command interpretor v11.31 (firmware)
Electrode material :
Initial state :
Electrolyte :
Comments :
Cable : standard
Reference electrode : SCE Saturated Calomel Electrode (0,241 V)
Electrode surface area : 0,001 cm²
Characteristic mass : 0,001 g
Equivalent Weight : 0,000 g/eq.
Density : 0,000 g/cm3
Cycle Definition : Charge/Discharge alternance
Ei (V)              0,000
vs.                 Eoc
dE/dt               0,100
dE/dt unit          mV/s
E1 (V)              1,000
vs.                 Ref
Step percent        50
N                   10
E range min (V)     0,000
E range max (V)     5,000
I Range             Auto
I Range min         Unset
I Range max         Unset
I Range init        Unset
Bandwidth           8
E2 (V)              3,000
vs.                 Ref
nc cycles           1
Reverse Scan        1
Ef (V)              0,000
vs.                 Eoc

mode	ox/red	error	control changes	counter inc.	time/s	control/V	Ewe/V	<I>/mA	cycle number	(Q-Qo)/C	I Range	P/W
2	1	0	1	0	1,206049969532614E+003	2,0588205E+000	2,0593317E+000	4,070655850227922E-004	1,000000000000000E+000	0,0000000E+000	43	8,3828303E-007
2	0	0	1	0	2,360723340363111E+003	1,9433519E+000	1,9438616E+000	-3,934785905815946E-003	1,000000000000000E+000	-2,6777994E-003	42	-7,6486795E-006
2	0	0	1	0	3,519895911079948E+003	1,8274342E+000	1,8279042E+000	-8,284724514240976E-003	1,000000000000000E+000	-9,6379742E-003	42	-1,5143683E-005
2	0	0	1	0	4,679068489467027E+003	1,7115165E+000	1,7120190E+000	-1,532419552044451E-002	1,000000000000000E+000	-2,3054533E-002	41	-2,6235313E-005
2	0	0	1	0	5,838241075432685E+003	1,5955988E+000	1,5960722E+000	-2,638278269273198E-002	1,000000000000000E+000	-4,6582922E-002	41	-4,2108826E-005
2	0	0	1	0	6,997414461398344E+003	1,4796810E+000	1,4801202E+000	-7,059600007434774E-002	1,000000000000000E+000	-9,7396627E-002	41	-1,0449057E-004
2	0	0	1	0	8,156587047364024E+003	1,3637633E+000	1,3641561E+000	-7,680181195686697E-002	1,000000000000000E+000	-1,8930833E-001	41	-1,0476966E-004
2	0	0	1	0	9,315759033329727E+003	1,2478458E+000	1,2482554E+000	-5,543714911683950E-002	1,000000000000000E+000	-2,6532370E-001	41	-6,9199719E-005
2	0	0	1	0	1,047493161929536E+004	1,1319281E+000	1,1323406E+000	-4,189457868139845E-002	1,000000000000000E+000	-3,2067630E-001	41	-4,7438931E-005
2	0	0	1	0	1,163410430526103E+004	1,0160103E+000	1,0164348E+000	-3,598262216543990E-002	1,000000000000000E+000	-3,6549944E-001	41	-3,6573991E-005
2	0	0	1	0	1,277929359139604E+004	1,0984519E+000	1,0988741E+000	-1,411145092133499E-002	1,000000000000000E+000	-3,9240968E-001	41	-1,5506708E-005
2	0	0	1	0	1,393847317736162E+004	1,2143695E+000	1,2148283E+000	-6,357021558179916E-003	1,000000000000000E+000	-4,0369594E-001	41	-7,7226896E-006
2	0	0	1	0	1,509765286332718E+004	1,3302872E+000	1,3307620E+000	-2,096135464169042E-003	1,000000000000000E+000	-4,0834647E-001	42	-2,7894575E-006
2	1	0	1	0	1,625683194929278E+004	1,4462048E+000	1,4466796E+000	2,042177133550039E-003	1,000000000000000E+000	-4,0860903E-001	42	2,9543760E-006
2	1	0	1	0	1,741601173525836E+004	1,5621226E+000	1,5626280E+000	1,058647805449489E-002	1,000000000000000E+000	-4,0190163E-001	41	1,6542728E-005
2	1	0	1	0	1,857519172122396E+004	1,6780404E+000	1,6785624E+000	6,585328565673687E-002	1,000000000000000E+000	-3,6087415E-001	41	1,1053885E-004
2	1	0	1	0	1,973437090718954E+004	1,7939579E+000	1,7944660E+000	8,584985124412158E-002	1,000000000000000E+000	-2,6665932E-001	41	1,5405464E-004
2	1	0	1	0	2,089355069315512E+004	1,9098755E+000	1,9103811E+000	5,238687843892287E-002	1,000000000000000E+000	-1,8448994E-001	41	1,0007890E-004
2	1	0	1	0	2,205273037912072E+004	2,0257931E+000	2,0262954E+000	2,531837845332130E-002	1,000000000000000E+000	-1,4147078E-001	41	5,1302515E-005
2	1	0	1	0	2,321191076508630E+004	2,1417110E+000	2,1421776E+000	1,493252940535117E-002	1,000000000000000E+000	-1,1909773E-001	41	3,1988129E-005
2	1	0	1	0	2,437109065105196E+004	2,2576287E+000	2,2584057E+000	1,045332100010061E-002	1,000000000000000E+000	-1,0461715E-001	41	2,3607839E-005
2	1	0	1	0	2,553026983701749E+004	2,3735464E+000	2,3743532E+000	7,831825573463375E-003	1,000000000000000E+000	-9,4094507E-002	41	1,8595520E-005
2	1	0	1	0	2,668944902298307E+004	2,4894640E+000	2,4902489E+000	6,316505020609375E-003	1,000000000000000E+000	-8,5969433E-002	41	1,5729669E-005
2	1	0	1	0	2,784862820894871E+004	2,6053817E+000	2,6061511E+000	5,402278017139273E-003	1,000000000000000E+000	-7,9201415E-002	41	1,4079153E-005
2	1	0	1	0	2,900780849491425E+004	2,7212994E+000	2,7220984E+000	5,136530305151300E-003	1,000000000000000E+000	-7,3123015E-002	41	1,3982140E-005
2	1	0	1	0	3,016698848087984E+004	2,8372173E+000	2,8380115E+000	5,108565845546573E-003	1,000000000000000E+000	-6,7252845E-002	41	1,4498169E-005
2	1	0	1	0	3,132616756684543E+004	2,9531348E+000	2,9539382E+000	6,113387707859151E-003	1,000000000000000E+000	-6,0607333E-002	41	1,8058570E-005
2	1	0	1	1	3,246934925300471E+004	2,9324496E+000	2,9332595E+000	2,956845944407559E-003	1,000000000000000E+000	-5,5062819E-002	42	8,6731961E-006
2	1	0	1	1	3,362851415099180E+004	2,8165319E+000	2,8173103E+000	1,833135227499540E-003	1,000000000000000E+000	-5,2461442E-002	42	5,1645106E-006
2	1	0	1	1	3,478768095315096E+004	2,7006142E+000	2,7014031E+000	1,216830462196616E-003	1,000000000000000E+000	-5,0740540E-002	42	3,2871496E-006
2	1	0	1	1	3,594684585531009E+004	2,5846965E+000	2,5854638E+000	7,041715505828852E-004	1,000000000000000E+000	-4,9677093E-002	42	1,8206100E-006
2	1	0	1	1	3,710601195746916E+004	2,4687788E+000	2,4695890E+000	1,681164830468207E-004	1,000000000000000E+000	-4,9205452E-002	43	4,1517862E-007
2	0	0	1	1	3,826517795962840E+004	2,3528609E+000	2,3536570E+000	-4,014114909220486E-004	1,000000000000000E+000	-4,9372856E-002	43	-9,4478497E-007
2	0	0	1	1	3,942434286178742E+004	2,2369435E+000	2,2377350E+000	-1,015179517207167E-003	1,000000000000000E+000	-5,0232060E-002	42	-2,2717027E-006
2	0	0	1	1	4,058350976394652E+004	2,1210258E+000	2,1218624E+000	-1,987199800405324E-003	1,000000000000000E+000	-5,1951557E-002	42	-4,2165648E-006
2	0	0	1	1	4,173168346608522E+004	2,0062072E+000	2,0070248E+000	-3,562771401635523E-003	2,000000000000000E+000	-5,5092402E-002	42	-7,1505706E-006
2	0	0	1	1	4,289085666824423E+004	1,8902895E+000	1,8910950E+000	-6,416390722040595E-003	2,000000000000000E+000	-6,0752057E-002	42	-1,2134004E-005
2	0	0	1	1	4,405002877040347E+004	1,7743719E+000	1,7752208E+000	-1,114558125818832E-002	2,000000000000000E+000	-7,0737965E-002	41	-1,9785866E-005
2	0	0	1	1	4,520920237256255E+004	1,6584542E+000	1,6592622E+000	-1,880343188087524E-002	2,000000000000000E+000	-8,7846167E-002	41	-3,1199823E-005
2	0	0	1	1	4,636837537472171E+004	1,5425365E+000	1,5433289E+000	-3,497199790037098E-002	2,000000000000000E+000	-1,1726613E-001	41	-5,3973294E-005
[...]
2	0	0	1	1	5,446761058980774E+004	1,2673318E+000	1,2681172E+000	-5,008685742364655E-003	2,000000000000000E+000	-4,8352614E-001	41	-6,3516004E-006
2	0	0	1	1	5,562778929196863E+004	1,3833495E+000	1,3841356E+000	-3,233221161261604E-005	2,000000000000000E+000	-4,8626119E-001	44	-4,4752166E-008
2	1	0	1	1	5,678696899412785E+004	1,4992672E+000	1,5000949E+000	6,607931418187524E-003	2,000000000000000E+000	-4,8273760E-001	42	9,9125245E-006
2	1	0	1	1	5,794614779628703E+004	1,6151848E+000	1,6160007E+000	2,998693583164191E-002	2,000000000000000E+000	-4,6712300E-001	41	4,8458907E-005
2	1	0	1	1	5,910532819844611E+004	1,7311025E+000	1,7319614E+000	8,841013454805258E-002	2,000000000000000E+000	-3,9631605E-001	41	1,5312294E-004
2	1	0	1	1	6,026450800060527E+004	1,8470204E+000	1,8478491E+000	9,205470524070281E-002	2,000000000000000E+000	-2,8379378E-001	41	1,7010320E-004
2	1	0	1	1	6,142368720276435E+004	1,9629381E+000	1,9637548E+000	4,786752213490070E-002	2,000000000000000E+000	-2,0241338E-001	41	9,4000075E-005
2	1	0	1	1	6,258286790492357E+004	2,0788555E+000	2,0796998E+000	2,202375990267579E-002	2,000000000000000E+000	-1,6443020E-001	41	4,5802808E-005
2	1	0	1	1	6,374204690708264E+004	2,1947734E+000	2,1955578E+000	1,298839035744855E-002	2,000000000000000E+000	-1,4490181E-001	41	2,8516763E-005
2	1	0	1	1	6,490122600924183E+004	2,3106909E+000	2,3114543E+000	8,906340073892710E-003	2,000000000000000E+000	-1,3242334E-001	41	2,0586598E-005
2	1	0	1	1	6,606040628637315E+004	2,4266086E+000	2,4273944E+000	6,675467324401135E-003	2,000000000000000E+000	-1,2348818E-001	41	1,6203992E-005
2	1	0	1	1	6,721958641217183E+004	2,5425265E+000	2,5432839E+000	5,407703498439914E-003	2,000000000000000E+000	-1,1645666E-001	41	1,3753325E-005
2	1	0	1	1	6,837976403773762E+004	2,6585441E+000	2,6592743E+000	4,524113788755751E-003	2,000000000000000E+000	-1,1072957E-001	42	1,2030860E-005
2	1	0	1	1	6,953894276353694E+004	2,7744615E+000	2,7751939E+000	4,394044928157773E-003	2,000000000000000E+000	-1,0559020E-001	42	1,2194327E-005
2	1	0	1	1	7,069812158933678E+004	2,8903792E+000	2,8911088E+000	5,942939718840440E-003	2,000000000000000E+000	-9,9419020E-002	42	1,7181685E-005
2	1	0	1	0	7,183931211941817E+004	2,9954047E+000	2,9961584E+000	4,435819187464274E-003	2,000000000000000E+000	-9,3143925E-002	42	1,3290417E-005
2	1	0	1	0	7,299847874523373E+004	2,8794870E+000	2,8802354E+000	1,490955894982673E-003	2,000000000000000E+000	-9,0296619E-002	42	4,2943038E-006
2	1	0	1	0	7,415764457104704E+004	2,7635694E+000	2,7643051E+000	7,621175677293909E-004	2,000000000000000E+000	-8,9103401E-002	42	2,1067256E-006
2	1	0	1	0	7,531681029685703E+004	2,6476519E+000	2,6483753E+000	3,688948850855099E-004	2,000000000000000E+000	-8,8477656E-002	43	9,7697205E-007
2	1	0	1	0	7,647697382243071E+004	2,5316341E+000	2,5323570E+000	-8,137331975629177E-006	2,000000000000000E+000	-8,8301979E-002	44	-2,0606629E-008
2	0	0	1	0	7,763613854823704E+004	2,4157166E+000	2,4164262E+000	-4,023493298595422E-004	2,000000000000000E+000	-8,8580787E-002	43	-9,7224745E-007
2	0	0	1	0	7,879530507403973E+004	2,2997990E+000	2,3005023E+000	-8,531514797927749E-004	2,000000000000000E+000	-8,9328036E-002	42	-1,9626768E-006
2	0	0	1	0	7,995447079984332E+004	2,1838810E+000	2,1845875E+000	-1,569700405327584E-003	2,000000000000000E+000	-9,0721607E-002	42	-3,4291479E-006
2	0	0	1	0	8,111363662564522E+004	2,0679634E+000	2,0687010E+000	-2,833139232079548E-003	2,000000000000000E+000	-9,3240522E-002	42	-5,8609180E-006
2	0	0	1	0	8,120456050412660E+004	2,0588205E+000	2,0595410E+000	-3,026999257909137E-003	2,000000000000000E+000	-9,3506992E-002	42	-6,2342292E-006

File: CV_LTO-CB_03_CV_C05.mpt
EC-Lab ASCII FILE
Nb header lines : 57

Cyclic Voltammetry

Run on channel : 5 (SN 6809)
User : Seelab
Electrode connection : standard
Ewe ctrl range : min = 0,00 V, max = 5,00 V
Ewe,I filtering : 50 kHz
Safety Limits :
	Do not start on E overload
Channel : Grounded
Acquisition started on : 04/16/2021 18:38:45
Saved on :
	File : CV_LTO-CB_03_CV_C05.mpr
	Directory : C:\Users\labsuperfici\Desktop\Biologic\Users\Prisca Viviani\210416\
	Host : 10.78.33.0
Device : VSP-300 (SN 0638)
Address : USB
EC-Lab for windows v11.31 (software)
Internet server v11.30 (firmware)
Command interpretor v11.31 (firmware)
Electrode material :
Initial state :
Electrolyte :
Comments :
Cable : standard
Reference electrode : SCE Saturated Calomel Electrode (0,241 V)
Electrode surface area : 0,001 cm²
Characteristic mass : 0,001 g
Equivalent Weight : 0,000 g/eq.
Density : 0,000 g/cm3
Cycle Definition : Charge/Discharge alternance
Ei (V)              0,000
vs.                 Eoc
dE/dt               0,200
dE/dt unit          mV/s
E1 (V)              1,000
vs.                 Ref
Step percent        50
N                   10
E range min (V)     0,000
E range max (V)     5,000
I Range             Auto
I Range min         Unset
I Range max         Unset
I Range init        Unset
Bandwidth           8
E2 (V)              3,000
vs.                 Ref
nc cycles           1
Reverse Scan        1
Ef (V)              0,000
vs.                 Eoc

mode	ox/red	error	control changes	counter inc.	time/s	control/V	Ewe/V	<I>/mA	cycle number	(Q-Qo)/C	I Range	P/W
2	0	0	1	0	8,120515930398507E+004	2,0588205E+000	2,0594990E+000	-3,054997883737087E-003	1,000000000000000E+000	0,0000000E+000	42	-6,2917652E-006
2	0	0	1	0	8,178249796742690E+004	1,9433519E+000	1,9440836E+000	-8,405015115918762E-003	1,000000000000000E+000	-3,4471480E-003	42	-1,6340051E-005
2	0	0	1	0	8,236208593033382E+004	1,8274343E+000	1,8281630E+000	-1,493292177917785E-002	1,000000000000000E+000	-1,0111258E-002	41	-2,7299815E-005
2	0	0	1	0	8,294167389324098E+004	1,7115166E+000	1,7122736E+000	-2,492677398815672E-002	1,000000000000000E+000	-2,1462537E-002	41	-4,2681459E-005
2	0	0	1	0	8,352126185614616E+004	1,5955991E+000	1,5963252E+000	-4,021525886255173E-002	1,000000000000000E+000	-4,0028565E-002	41	-6,4196633E-005
2	0	0	1	0	8,410084981905401E+004	1,4796811E+000	1,4803721E+000	-7,343545848840116E-002	1,000000000000000E+000	-7,1431167E-002	41	-1,0871180E-004
2	0	0	1	0	8,468043778196018E+004	1,3637633E+000	1,3644853E+000	-1,162844956218770E-001	1,000000000000000E+000	-1,2823051E-001	40	-1,5866848E-004
2	0	0	1	0	8,526002544486686E+004	1,2478459E+000	1,2485653E+000	-1,134827797071473E-001	1,000000000000000E+000	-1,9666485E-001	40	-1,4169066E-004
2	0	0	1	0	8,583961340777413E+004	1,1319281E+000	1,1326663E+000	-9,169873788475202E-002	1,000000000000000E+000	-2,5621456E-001	40	-1,0386408E-004
2	0	0	1	0	8,641920137067907E+004	1,0160104E+000	1,0167630E+000	-7,513710819556463E-002	1,000000000000000E+000	-3,0402327E-001	40	-7,6396631E-005
2	0	0	1	0	8,699179593524034E+004	1,0984519E+000	1,0992153E+000	-3,344311336116701E-002	1,000000000000000E+000	-3,3370841E-001	41	-3,6761179E-005
2	0	0	1	0	8,757138549814047E+004	1,2143695E+000	1,2150913E+000	-1,662994001880463E-002	1,000000000000000E+000	-3,4758836E-001	41	-2,0206897E-005
2	0	0	1	0	8,815097516103997E+004	1,3302873E+000	1,3310306E+000	-7,853321736868497E-003	1,000000000000000E+000	-3,5447329E-001	41	-1,0453012E-005
2	1	0	1	0	8,873056462394050E+004	1,4462050E+000	1,4469546E+000	1,554606111584055E-003	1,000000000000000E+000	-3,5647604E-001	42	2,2494444E-006
2	1	0	1	0	8,931015428683907E+004	1,5621227E+000	1,5628736E+000	1,662146534514836E-002	1,000000000000000E+000	-3,5159943E-001	41	2,5977250E-005
2	1	0	1	0	8,988974434973998E+004	1,6780404E+000	1,6788133E+000	7,804628039350292E-002	1,000000000000000E+000	-3,2753503E-001	41	1,3102514E-004
2	1	0	1	0	9,046933381263935E+004	1,7939579E+000	1,7947007E+000	1,506950828025033E-001	1,000000000000000E+000	-2,5988573E-001	40	2,7045258E-004
2	1	0	1	0	9,104892357553961E+004	1,9098756E+000	1,9106009E+000	1,543902266838559E-001	1,000000000000000E+000	-1,6649653E-001	40	2,9497812E-004
2	1	0	1	0	9,162851393843931E+004	2,0257931E+000	2,0265203E+000	8,632267712558961E-002	1,000000000000000E+000	-9,5760562E-002	40	1,7493466E-004
2	1	0	1	0	9,220810400133883E+004	2,1417110E+000	2,1424308E+000	4,044382773026667E-002	1,000000000000000E+000	-6,1012127E-002	41	8,6648099E-005
2	1	0	1	0	9,278769366423949E+004	2,2576287E+000	2,2583513E+000	2,328639485020002E-002	1,000000000000000E+000	-4,3294501E-002	41	5,2588861E-005
2	1	0	1	0	9,336728312713874E+004	2,3735466E+000	2,3742852E+000	1,574488668336455E-002	1,000000000000000E+000	-3,2216895E-002	41	3,7382852E-005
2	1	0	1	0	9,394687259003916E+004	2,4894640E+000	2,4901905E+000	1,191152063389397E-002	1,000000000000000E+000	-2,4302639E-002	41	2,9661956E-005
2	1	0	1	0	9,452646205294202E+004	2,6053820E+000	2,6061089E+000	9,289641876916766E-003	1,000000000000000E+000	-1,8179210E-002	41	2,4209818E-005
2	1	0	1	0	9,510605211584410E+004	2,7212996E+000	2,7220347E+000	7,837001819706924E-003	1,000000000000000E+000	-1,3231451E-002	41	2,1332591E-005
2	1	0	1	0	9,568564207874925E+004	2,8372171E+000	2,8379483E+000	8,615735301741034E-003	1,000000000000000E+000	-8,6795315E-003	41	2,4451012E-005
2	1	0	1	0	9,626523144165403E+004	2,9531348E+000	2,9538682E+000	8,118525271920779E-003	1,000000000000000E+000	-3,6192976E-003	41	2,3981052E-005
2	1	0	1	1	9,683682430646732E+004	2,9324496E+000	2,9331565E+000	3,057632997880609E-003	1,000000000000000E+000	-1,8854362E-004	42	8,9685163E-006
2	1	0	1	1	9,741641016937490E+004	2,8165319E+000	2,8172574E+000	1,215647687271908E-003	1,000000000000000E+000	9,2180050E-004	42	3,4247923E-006
2	1	0	1	1	9,799599683228089E+004	2,7006140E+000	2,7013366E+000	4,980667610282302E-004	1,000000000000000E+000	1,3855301E-003	43	1,3454460E-006
2	0	0	1	1	9,857608279506979E+004	2,5845964E+000	2,5853181E+000	-1,425924907593745E-004	1,000000000000000E+000	1,4503445E-003	43	-3,6864694E-007
2	0	0	1	1	9,915566925797635E+004	2,4686787E+000	2,4693656E+000	-7,685395294661137E-004	1,000000000000000E+000	1,1708386E-003	43	-1,8978051E-006
2	0	0	1	1	9,973525512088300E+004	2,3527610E+000	2,3534749E+000	-1,423073112801532E-003	1,000000000000000E+000	5,2165834E-004	42	-3,3491667E-006
2	0	0	1	1	1,003148410837909E+005	2,2368436E+000	2,2375531E+000	-2,380679837794423E-003	1,000000000000000E+000	-5,8012980E-004	42	-5,3268977E-006
2	0	0	1	1	1,008944269466945E+005	2,1209259E+000	2,1216428E+000	-4,053308365393388E-003	1,000000000000000E+000	-2,4182103E-003	42	-8,5996726E-006
2	0	0	1	1	1,014680177110082E+005	2,0062070E+000	2,0069256E+000	-6,855532888393773E-003	2,000000000000000E+000	-5,4933745E-003	42	-1,3758544E-005
2	0	0	1	1	1,020476059739084E+005	1,8902895E+000	1,8910259E+000	-1,163630072146897E-002	2,000000000000000E+000	-1,0747939E-002	41	-2,2004546E-005
2	0	0	1	1	1,026271936368080E+005	1,7743720E+000	1,7751060E+000	-1,936495799169480E-002	2,000000000000000E+000	-1,9585652E-002	41	-3,4374851E-005
2	0	0	1	1	1,032067817997094E+005	1,6584542E+000	1,6591930E+000	-3,138823485015935E-002	2,000000000000000E+000	-3,4093983E-002	41	-5,2079140E-005
2	0	0	1	1	1,037863700626092E+005	1,5425365E+000	1,5432462E+000	-5,208347469126229E-002	2,000000000000000E+000	-5,7521790E-002	41	-8,0377620E-005
[...]
2	0	0	1	1	1,078359949046946E+005	1,2673320E+000	1,2680813E+000	-1,106495011624173E-002	2,000000000000000E+000	-3,5650012E-001	41	-1,4031257E-005
2	0	0	1	1	1,084155842675999E+005	1,3832495E+000	1,3840059E+000	-3,117574618034618E-003	2,000000000000000E+000	-3,6061725E-001	42	-4,3147415E-006
2	1	0	1	1	1,089951738305076E+005	1,4991673E+000	1,4999291E+000	8,109980412459250E-003	2,000000000000000E+000	-3,5939130E-001	42	1,2164395E-005
2	1	0	1	1	1,095747633934126E+005	1,6150850E+000	1,6158297E+000	3,604854876352392E-002	2,000000000000000E+000	-3,4904775E-001	41	5,8248315E-005
2	1	0	1	1	1,101543533563189E+005	1,7310028E+000	1,7317653E+000	1,175623726628241E-001	2,000000000000000E+000	-3,0469421E-001	40	2,0359043E-004
2	1	0	1	1	1,107339428192251E+005	1,8469206E+000	1,8476304E+000	1,695526999516261E-001	2,000000000000000E+000	-2,1802703E-001	40	3,1327072E-004
2	1	0	1	1	1,113135325821311E+005	1,9628382E+000	1,9635893E+000	1,290786219629774E-001	2,000000000000000E+000	-1,2725636E-001	40	2,5345740E-004
2	1	0	1	1	1,118931235450380E+005	2,0787559E+000	2,0795255E+000	6,085919942243141E-002	2,000000000000000E+000	-7,3683783E-002	40	1,2655825E-004
2	1	0	1	1	1,124732124078239E+005	2,1947732E+000	2,1954911E+000	3,054427596141962E-002	2,000000000000000E+000	-4,8651405E-002	41	6,7059686E-005
2	1	0	1	1	1,130528018707305E+005	2,3106911E+000	2,3114450E+000	1,891900774814281E-002	2,000000000000000E+000	-3,4756169E-002	41	4,3730244E-005
2	1	0	1	1	1,136323919336369E+005	2,4266088E+000	2,4273651E+000	1,337760686344944E-002	2,000000000000000E+000	-2,5570417E-002	41	3,2472337E-005
2	1	0	1	1	1,142119819965409E+005	2,5425265E+000	2,5432384E+000	1,027701612504982E-002	2,000000000000000E+000	-1,8732022E-002	41	2,6136902E-005
2	1	0	1	1	1,147915712594453E+005	2,6584442E+000	2,6591291E+000	8,238504267335467E-003	2,000000000000000E+000	-1,3423537E-002	41	2,1907246E-005
2	1	0	1	1	1,153711605223469E+005	2,7743616E+000	2,7750711E+000	7,279168152378196E-003	2,000000000000000E+000	-8,9911232E-003	41	2,0200210E-005
2	1	0	1	1	1,159507499852477E+005	2,8902795E+000	2,8910053E+000	8,032771974748179E-003	2,000000000000000E+000	-4,3932679E-003	41	2,3222787E-005
2	1	0	1	0	1,165218450501412E+005	2,9954050E+000	2,9961178E+000	5,909457705457144E-003	2,000000000000000E+000	-7,8253157E-005	41	1,7705432E-005
2	1	0	1	0	1,171014317130416E+005	2,8794870E+000	2,8802261E+000	1,743910489901367E-003	2,000000000000000E+000	1,7104632E-003	42	5,0228564E-006
2	1	0	1	0	1,176810181759435E+005	2,7635694E+000	2,7643051E+000	7,325377734131349E-004	2,000000000000000E+000	2,3562270E-003	42	2,0249579E-006
2	1	0	1	0	1,182606046388429E+005	2,6476519E+000	2,6483901E+000	8,732459948056865E-005	2,000000000000000E+000	2,5832898E-003	43	2,3126960E-007
2	0	0	1	0	1,188406900016270E+005	2,5316339E+000	2,5323746E+000	-4,565510246820718E-004	2,000000000000000E+000	2,4500359E-003	43	-1,1561582E-006
2	0	0	1	0	1,194202758645280E+005	2,4157166E+000	2,4164712E+000	-1,059983028583709E-003	2,000000000000000E+000	1,9894654E-003	42	-2,5614186E-006
2	0	0	1	0	1,199998626274276E+005	2,2997987E+000	2,3005247E+000	-1,792021218380340E-003	2,000000000000000E+000	1,1597665E-003	42	-4,1225890E-006
2	0	0	1	0	1,205794490903313E+005	2,1838810E+000	2,1846056E+000	-3,024349504112886E-003	2,000000000000000E+000	-2,2336167E-004	42	-6,6070111E-006
2	0	0	1	0	1,211590355532349E+005	2,0679631E+000	2,0687222E+000	-5,242303181623706E-003	2,000000000000000E+000	-2,5872558E-003	42	-1,0844869E-005
2	0	0	0	0	1,212044976424917E+005	2,0588205E+000	2,0595753E+000	-5,555082581636003E-003	2,000000000000000E+000	-2,8326351E-003	42	-1,1441111E-005