Folder: Randles-Sevcik/Dati/210416_2 (part 3)

File: CV_LTO-CB_grafite nuova_15 layers__06_CV_C01.mpt
EC-Lab ASCII FILE
Nb header lines : 57

Cyclic Voltammetry

Run on channel : 1 (SN 6806)
User : Seelab
Electrode connection : standard
Ewe ctrl range : min = 0,00 V, max = 5,00 V
Ewe,I filtering : 50 kHz
Safety Limits :
	Do not start on E overload
Channel : Grounded
Acquisition started on : 04/16/2021 18:47:00
Saved on :
	File : CV_LTO-CB_grafite nuova_15 layers__06_CV_C01.mpr
	Directory : C:\Users\labsuperfici\Desktop\Biologic\Users\Prisca Viviani\210416_2\
	Host : 10.78.33.0
Device : VSP-300 (SN 0638)
Address : USB
EC-Lab for windows v11.31 (software)
Internet server v11.30 (firmware)
Command interpretor v11.31 (firmware)
Electrode material :
Initial state :
Electrolyte :
Comments :
Cable : standard
Reference electrode : SCE Saturated Calomel Electrode (0,241 V)
Electrode surface area : 0,001 cm²
Characteristic mass : 0,001 g
Equivalent Weight : 0,000 g/eq.
Density : 0,000 g/cm3
Cycle Definition : Charge/Discharge alternance
Ei (V)              0,000
vs.                 Eoc
dE/dt               0,500
dE/dt unit          mV/s
E1 (V)              1,000
vs.                 Ref
Step percent        50
N                   10
E range min (V)     0,000
E range max (V)     5,000
I Range             Auto
I Range min         Unset
I Range max         Unset
I Range init        Unset
Bandwidth           8
E2 (V)              3,000
vs.                 Ref
nc cycles           1
Reverse Scan        1
Ef (V)              0,000
vs.                 Eoc

mode	ox/red	error	control changes	counter inc.	time/s	control/V	Ewe/V	<I>/mA	cycle number	(Q-Qo)/C	I Range	P/W
2	0	0	1	0	1,679510434786056E+005	2,2496376E+000	2,2504835E+000	-6,033443380147219E-003	1,000000000000000E+000	0,0000000E+000	42	-1,3578165E-005
2	0	0	1	0	1,681821029147562E+005	2,1341071E+000	2,1349909E+000	-9,049712922193337E-003	1,000000000000000E+000	-1,7791640E-003	42	-1,9321054E-005
2	0	0	1	0	1,684140623510492E+005	2,0181274E+000	2,0189126E+000	-1,284034114581620E-002	1,000000000000000E+000	-4,3132133E-003	41	-2,5923526E-005
2	0	0	1	0	1,686460218873434E+005	1,9021478E+000	1,9029449E+000	-1,814053965272440E-002	1,000000000000000E+000	-7,9068225E-003	41	-3,4520446E-005
2	0	0	1	0	1,688779814236339E+005	1,7861681E+000	1,7869419E+000	-2,770828587525193E-002	1,000000000000000E+000	-1,3106886E-002	41	-4,9513095E-005
2	0	0	1	0	1,691099407599289E+005	1,6701883E+000	1,6709949E+000	-4,894352094153154E-002	1,000000000000000E+000	-2,1740176E-002	41	-8,1784376E-005
2	0	0	1	0	1,693419000962200E+005	1,5542086E+000	1,5550749E+000	-9,739840638890351E-002	1,000000000000000E+000	-3,7704144E-002	41	-1,5146182E-004
2	0	0	1	0	1,695738594325131E+005	1,4382288E+000	1,4390059E+000	-1,956877760724920E-001	1,000000000000000E+000	-7,4491717E-002	40	-2,8159586E-004
2	0	0	1	0	1,698058189688064E+005	1,3222491E+000	1,3230311E+000	-1,834015259816909E-001	1,000000000000000E+000	-1,1910155E-001	40	-2,4264591E-004
2	0	0	1	0	1,700377782050977E+005	1,2062695E+000	1,2070560E+000	-1,552595367478768E-001	1,000000000000000E+000	-1,5823096E-001	40	-1,8740696E-004
2	0	0	1	0	1,702697375413924E+005	1,0902900E+000	1,0910492E+000	-1,372626250141156E-001	1,000000000000000E+000	-1,9197831E-001	40	-1,4976028E-004
2	0	0	1	0	1,704994981773396E+005	1,0245013E+000	1,0252587E+000	-1,017468574564077E-001	1,000000000000000E+000	-2,2186388E-001	40	-1,0431684E-004
2	0	0	1	0	1,707314576136339E+005	1,1404811E+000	1,1412492E+000	-5,922159864145404E-002	1,000000000000000E+000	-2,3954079E-001	40	-6,7586603E-005
2	0	0	1	0	1,709634173499253E+005	1,2564607E+000	1,2572671E+000	-4,012444273587787E-002	1,000000000000000E+000	-2,5086275E-001	41	-5,0447143E-005
2	0	0	1	0	1,711953770862194E+005	1,3724405E+000	1,3732127E+000	-2,566882441740839E-002	1,000000000000000E+000	-2,5844416E-001	41	-3,5248755E-005
2	0	0	1	0	1,714273366225120E+005	1,4884202E+000	1,4891834E+000	-6,447157860179568E-003	1,000000000000000E+000	-2,6237220E-001	41	-9,6010008E-006
2	1	0	1	0	1,716594962588346E+005	1,6044999E+000	1,6051338E+000	6,354446725851330E-002	1,000000000000000E+000	-2,5860184E-001	41	1,0199737E-004
2	1	0	1	0	1,718914558951287E+005	1,7204792E+000	1,7211616E+000	3,447730484365152E-001	1,000000000000000E+000	-2,1276139E-001	40	5,9341011E-004
2	1	0	1	0	1,721234155314206E+005	1,8364592E+000	1,8371437E+000	3,631418731204095E-001	1,000000000000000E+000	-1,1990762E-001	40	6,6714379E-004
2	1	0	1	0	1,723553752677140E+005	1,9524390E+000	1,9531766E+000	1,370712676349801E-001	1,000000000000000E+000	-6,3794374E-002	40	2,6772439E-004
2	1	0	1	0	1,725873350040074E+005	2,0684185E+000	2,0691383E+000	5,496385981372404E-002	1,000000000000000E+000	-4,3717008E-002	40	1,1372782E-004
2	1	0	1	0	1,728192950402992E+005	2,1843984E+000	2,1851387E+000	3,375563702875256E-002	1,000000000000000E+000	-3,3879239E-002	41	7,3760748E-005
2	1	0	1	0	1,730512547765933E+005	2,3003778E+000	2,3011339E+000	2,602893645381876E-002	1,000000000000000E+000	-2,7035434E-002	41	5,9896069E-005
2	1	0	1	0	1,732832145128846E+005	2,4163575E+000	2,4171095E+000	2,282709737593469E-002	1,000000000000000E+000	-2,1387203E-002	41	5,5175595E-005
2	1	0	1	0	1,735151745491792E+005	2,5323370E+000	2,5331283E+000	2,047349168689316E-002	1,000000000000000E+000	-1,6328182E-002	41	5,1861982E-005
2	1	0	1	0	1,737471345854704E+005	2,6483169E+000	2,6490989E+000	1,939642146737464E-002	1,000000000000000E+000	-1,1700029E-002	41	5,1383038E-005
2	1	0	1	0	1,739790947217643E+005	2,7642965E+000	2,7650621E+000	1,806112623532125E-002	1,000000000000000E+000	-7,3690536E-003	41	4,9940136E-005
2	1	0	1	0	1,742110544580566E+005	2,8802764E+000	2,8810756E+000	1,863133062853006E-002	1,000000000000000E+000	-3,0247367E-003	41	5,3678272E-005
2	1	0	1	0	1,744430142943489E+005	2,9962561E+000	2,9970672E+000	1,865700421838992E-002	1,000000000000000E+000	1,2978549E-003	41	5,5916295E-005
2	1	0	1	1	1,746715743301099E+005	2,8894746E+000	2,8902411E+000	2,841609488217618E-003	1,000000000000000E+000	2,8972698E-003	42	8,2129363E-006
2	0	0	1	1	1,749035335664041E+005	2,7734950E+000	2,7743049E+000	-8,942288933749278E-005	1,000000000000000E+000	3,1325002E-003	43	-2,4808637E-007
2	0	0	1	1	1,751354931026958E+005	2,6575153E+000	2,6583207E+000	-1,780832609432761E-003	1,000000000000000E+000	2,8957392E-003	42	-4,7340241E-006
2	0	0	1	1	1,753674522389884E+005	2,5415359E+000	2,5423806E+000	-3,427368082215190E-003	1,000000000000000E+000	2,1923778E-003	42	-8,7136741E-006
2	0	0	1	1	1,755994116752818E+005	2,4255559E+000	2,4264121E+000	-4,970235589755512E-003	1,000000000000000E+000	1,1731965E-003	42	-1,2059840E-005
2	0	0	1	1	1,758313709115735E+005	2,3095765E+000	2,3104446E+000	-5,947051544472119E-003	1,000000000000000E+000	-1,1768414E-004	42	-1,3740333E-005
2	0	0	1	1	1,760605311474290E+005	2,1949964E+000	2,1958718E+000	-7,667728441484278E-003	2,000000000000000E+000	-1,6950072E-003	42	-1,6837348E-005
2	0	0	1	1	1,762924903837219E+005	2,0790167E+000	2,0797951E+000	-1,050143500231132E-002	2,000000000000000E+000	-3,8200491E-003	41	-2,1840833E-005
2	0	0	1	1	1,765244499200140E+005	1,9630370E+000	1,9638437E+000	-1,487649280071521E-002	2,000000000000000E+000	-6,7837858E-003	41	-2,9215107E-005
2	0	0	1	1	1,767564092563083E+005	1,8470575E+000	1,8478694E+000	-2,144826752432631E-002	2,000000000000000E+000	-1,0959025E-002	41	-3,9633596E-005
[...]
2	0	0	1	1	1,786096854462733E+005	1,0794917E+000	1,0802686E+000	-7,430835394091773E-002	2,000000000000000E+000	-2,3088197E-001	40	-8,0272985E-005
2	0	0	1	1	1,788416450825678E+005	1,1954714E+000	1,1962490E+000	-4,866750715029267E-002	2,000000000000000E+000	-2,4473216E-001	40	-5,8218458E-005
2	0	0	1	1	1,790736048188591E+005	1,3114512E+000	1,3122464E+000	-3,298420149592834E-002	2,000000000000000E+000	-2,5409883E-001	41	-4,3283402E-005
2	0	0	1	1	1,793055642551528E+005	1,4274310E+000	1,4281805E+000	-1,796061549329523E-002	2,000000000000000E+000	-2,6005128E-001	41	-2,5650999E-005
2	1	0	1	1	1,795375239914451E+005	1,5434105E+000	1,5441663E+000	1,082540423587500E-002	2,000000000000000E+000	-2,6141939E-001	41	1,6716225E-005
2	1	0	1	1	1,797694837277378E+005	1,6593902E+000	1,6601211E+000	1,929437022644436E-001	2,000000000000000E+000	-2,4389215E-001	40	3,2030992E-004
2	1	0	1	1	1,800014434640314E+005	1,7753699E+000	1,7760811E+000	4,293203776932408E-001	2,000000000000000E+000	-1,6605493E-001	40	7,6250779E-004
2	1	0	1	1	1,802334030003229E+005	1,8913497E+000	1,8920623E+000	2,356478811208715E-001	2,000000000000000E+000	-8,3778143E-002	40	4,4586047E-004
2	1	0	1	1	1,804653628366170E+005	2,0073295E+000	2,0080671E+000	7,960312604859610E-002	2,000000000000000E+000	-5,0884150E-002	40	1,5984842E-004
2	1	0	1	1	1,806973225729088E+005	2,1233089E+000	2,1240129E+000	4,064870173321494E-002	2,000000000000000E+000	-3,7870284E-002	41	8,6338368E-005
2	1	0	1	1	1,809292823092027E+005	2,2392888E+000	2,2400322E+000	2,896097395518749E-002	2,000000000000000E+000	-2,9957527E-002	41	6,4873515E-005
2	1	0	1	1	1,811612425454953E+005	2,3552682E+000	2,3559997E+000	2,389622866690350E-002	2,000000000000000E+000	-2,3853643E-002	41	5,6299508E-005
2	1	0	1	1	1,813932022817875E+005	2,4712479E+000	2,4720175E+000	2,146326706144835E-002	2,000000000000000E+000	-1,8552711E-002	41	5,3057571E-005
2	1	0	1	1	1,816251622180808E+005	2,5872276E+000	2,5880339E+000	1,940917129146125E-002	2,000000000000000E+000	-1,3781602E-002	41	5,0231592E-005
2	1	0	1	1	1,818571222543726E+005	2,7032075E+000	2,7040057E+000	1,808214499766403E-002	2,000000000000000E+000	-9,3335910E-003	41	4,8894224E-005
2	1	0	1	1	1,820890820906674E+005	2,8191874E+000	2,8199866E+000	1,838162967200185E-002	2,000000000000000E+000	-5,1377756E-003	41	5,1835948E-005
2	1	0	1	1	1,823210418269583E+005	2,9351664E+000	2,9359696E+000	1,804602769052410E-002	2,000000000000000E+000	-8,4774726E-004	41	5,2982588E-005
2	1	0	1	0	1,825498023627521E+005	2,9504638E+000	2,9512784E+000	6,169365129013074E-003	2,000000000000000E+000	2,4458927E-003	41	1,8207515E-005
2	1	0	1	0	1,827817615990439E+005	2,8344843E+000	2,8353014E+000	1,069430635443782E-003	2,000000000000000E+000	3,1230305E-003	42	3,0321582E-006
2	0	0	1	0	1,830137208353383E+005	2,7185049E+000	2,7193174E+000	-8,127689735023813E-004	2,000000000000000E+000	3,0912694E-003	42	-2,2101769E-006
2	0	0	1	0	1,832456802716297E+005	2,6025252E+000	2,6033785E+000	-3,075849261936828E-003	2,000000000000000E+000	2,6288149E-003	42	-8,0075997E-006
2	0	0	1	0	1,834776395079221E+005	2,4865456E+000	2,4873681E+000	-4,198894033297845E-003	2,000000000000000E+000	1,7853614E-003	42	-1,0444195E-005
2	0	0	1	0	1,837095989442170E+005	2,3705657E+000	2,3714211E+000	-5,300625712305166E-003	2,000000000000000E+000	6,2139635E-004	42	-1,2570015E-005
2	0	0	1	0	1,839415585805075E+005	2,2545860E+000	2,2554524E+000	-6,614231330562603E-003	2,000000000000000E+000	-7,8389590E-004	42	-1,4918084E-005
2	0	0	1	0	1,839513271820368E+005	2,2496376E+000	2,2504759E+000	-7,077139014234929E-003	2,000000000000000E+000	-8,5056067E-004	42	-1,5926931E-005

File: CV_LTO-CB_grafite nuova_15 layers__07_CV_C01.mpt
EC-Lab ASCII FILE
Nb header lines : 57

Cyclic Voltammetry

Run on channel : 1 (SN 6806)
User : Seelab
Electrode connection : standard
Ewe ctrl range : min = 0,00 V, max = 5,00 V
Ewe,I filtering : 50 kHz
Safety Limits :
	Do not start on E overload
Channel : Grounded
Acquisition started on : 04/16/2021 18:47:00
Saved on :
	File : CV_LTO-CB_grafite nuova_15 layers__07_CV_C01.mpr
	Directory : C:\Users\labsuperfici\Desktop\Biologic\Users\Prisca Viviani\210416_2\
	Host : 10.78.33.0
Device : VSP-300 (SN 0638)
Address : USB
EC-Lab for windows v11.31 (software)
Internet server v11.30 (firmware)
Command interpretor v11.31 (firmware)
Electrode material :
Initial state :
Electrolyte :
Comments :
Cable : standard
Reference electrode : SCE Saturated Calomel Electrode (0,241 V)
Electrode surface area : 0,001 cm²
Characteristic mass : 0,001 g
Equivalent Weight : 0,000 g/eq.
Density : 0,000 g/cm3
Cycle Definition : Charge/Discharge alternance
Ei (V)              0,000
vs.                 Eoc
dE/dt               0,600
dE/dt unit          mV/s
E1 (V)              1,000
vs.                 Ref
Step percent        50
N                   10
E range min (V)     0,000
E range max (V)     5,000
I Range             Auto
I Range min         Unset
I Range max         Unset
I Range init        Unset
Bandwidth           8
E2 (V)              3,000
vs.                 Ref
nc cycles           1
Reverse Scan        1
Ef (V)              0,000
vs.                 Eoc

mode	ox/red	error	control changes	counter inc.	time/s	control/V	Ewe/V	<I>/mA	cycle number	(Q-Qo)/C	I Range	P/W
2	0	0	1	0	1,839515937820782E+005	2,2496376E+000	2,2504530E+000	-7,344287820160389E-003	1,000000000000000E+000	0,0000000E+000	42	-1,6527974E-005
2	0	0	1	0	1,841441434122042E+005	2,1341071E+000	2,1348855E+000	-1,041782561095685E-002	1,000000000000000E+000	-1,7278317E-003	41	-2,2240865E-005
2	0	0	1	0	1,843374429424484E+005	2,0181277E+000	2,0189385E+000	-1,475195935560200E-002	1,000000000000000E+000	-4,1632480E-003	41	-2,9783299E-005
2	0	0	1	0	1,845307426726930E+005	1,9021475E+000	1,9029553E+000	-2,062980331693165E-002	1,000000000000000E+000	-7,5887376E-003	41	-3,9257593E-005
2	0	0	1	0	1,847240423029382E+005	1,7861680E+000	1,7869376E+000	-3,148264932973444E-002	1,000000000000000E+000	-1,2522777E-002	41	-5,6257530E-005
2	0	0	1	0	1,849173418331814E+005	1,6701883E+000	1,6710062E+000	-5,555598960122277E-002	1,000000000000000E+000	-2,0687593E-002	41	-9,2834402E-005
2	0	0	1	0	1,851106413634249E+005	1,5542086E+000	1,5549800E+000	-1,110623416627502E-001	1,000000000000000E+000	-3,5873529E-002	40	-1,7269973E-004
2	0	0	1	0	1,853039409936678E+005	1,4382290E+000	1,4390073E+000	-2,162107289552386E-001	1,000000000000000E+000	-7,0135735E-002	40	-3,1112882E-004
2	0	0	1	0	1,854972406239123E+005	1,3222491E+000	1,3230425E+000	-2,028044592086828E-001	1,000000000000000E+000	-1,1114243E-001	40	-2,6831892E-004
2	0	0	1	0	1,856905400541574E+005	1,2062696E+000	1,2070529E+000	-1,725975267589967E-001	1,000000000000000E+000	-1,4728485E-001	40	-2,0833436E-004
2	0	0	1	0	1,858838395844027E+005	1,0902900E+000	1,0910773E+000	-1,545523868095917E-001	1,000000000000000E+000	-1,7874151E-001	40	-1,6862861E-004
2	0	0	1	0	1,860753068143590E+005	1,0245014E+000	1,0252939E+000	-1,141359566537339E-001	1,000000000000000E+000	-2,0678604E-001	40	-1,1702291E-004
2	0	0	1	0	1,862686062446034E+005	1,1404811E+000	1,1412325E+000	-6,720464772822354E-002	1,000000000000000E+000	-2,2339872E-001	40	-7,6696124E-005
2	0	0	1	0	1,864619059748462E+005	1,2564608E+000	1,2572613E+000	-4,609667844880047E-002	1,000000000000000E+000	-2,3415001E-001	41	-5,7955567E-005
2	0	0	1	0	1,866552058050896E+005	1,3724406E+000	1,3732567E+000	-2,963264150034184E-002	1,000000000000000E+000	-2,4143270E-001	41	-4,0693223E-005
2	0	0	1	0	1,868485056353332E+005	1,4884201E+000	1,4891671E+000	-7,795888735230821E-003	1,000000000000000E+000	-2,4524771E-001	41	-1,1609381E-005
2	1	0	1	0	1,870418052655784E+005	1,6043996E+000	1,6050880E+000	6,970004665817620E-002	1,000000000000000E+000	-2,4185151E-001	41	1,1187471E-004
2	1	0	1	0	1,872351050958238E+005	1,7203795E+000	1,7210814E+000	3,825539216946936E-001	1,000000000000000E+000	-1,9898747E-001	40	6,5840641E-004
2	1	0	1	0	1,874284048260666E+005	1,8363591E+000	1,8370807E+000	4,081125427872934E-001	1,000000000000000E+000	-1,1305282E-001	40	7,4973569E-004
2	1	0	1	0	1,876217045563099E+005	1,9523388E+000	1,9530803E+000	1,525851473616617E-001	1,000000000000000E+000	-6,0478292E-002	40	2,9801106E-004
2	1	0	1	0	1,878150043865531E+005	2,0683186E+000	2,0690932E+000	6,261791536691574E-002	1,000000000000000E+000	-4,1659482E-002	40	1,2956231E-004
2	1	0	1	0	1,880084711168241E+005	2,1843984E+000	2,1851304E+000	3,897096599275456E-002	1,000000000000000E+000	-3,2233074E-002	41	8,5156644E-005
2	1	0	1	0	1,882017710470674E+005	2,3003778E+000	2,3011372E+000	3,031455997669408E-002	1,000000000000000E+000	-2,5610587E-002	41	6,9757960E-005
2	1	0	1	0	1,883950708773127E+005	2,4163575E+000	2,4171252E+000	2,650370938343388E-002	1,000000000000000E+000	-2,0139989E-002	41	6,4062784E-005
2	1	0	1	0	1,885883709075581E+005	2,5323372E+000	2,5331252E+000	2,382016727686337E-002	1,000000000000000E+000	-1,5244556E-002	41	6,0339466E-005
2	1	0	1	0	1,887816709378008E+005	2,6483169E+000	2,6491230E+000	2,249172312774310E-002	1,000000000000000E+000	-1,0763479E-002	41	5,9583341E-005
2	1	0	1	0	1,889749708680441E+005	2,7642970E+000	2,7651019E+000	2,090003219714631E-002	1,000000000000000E+000	-6,5929461E-003	41	5,7790719E-005
2	1	0	1	0	1,891682707982878E+005	2,8802764E+000	2,8810902E+000	2,137674817416318E-002	1,000000000000000E+000	-2,4345985E-003	41	6,1588340E-005
2	1	0	1	0	1,893615706285327E+005	2,9962559E+000	2,9970677E+000	2,135531525078238E-002	1,000000000000000E+000	1,6944428E-003	41	6,4003325E-005
2	1	0	1	1	1,895520374583327E+005	2,8894749E+000	2,8902578E+000	3,251297980516460E-003	1,000000000000000E+000	3,2086414E-003	42	9,3970893E-006
2	0	0	1	1	1,897453369885781E+005	2,7734950E+000	2,7743025E+000	-1,328700863376384E-004	1,000000000000000E+000	3,4302105E-003	43	-3,6862181E-007
2	0	0	1	1	1,899386367188231E+005	2,6575153E+000	2,6583414E+000	-2,043233530729601E-003	1,000000000000000E+000	3,2005184E-003	42	-5,4316124E-006
2	0	0	1	1	1,901319361490656E+005	2,5415359E+000	2,5424111E+000	-3,953884348110140E-003	1,000000000000000E+000	2,5296656E-003	42	-1,0052399E-005
2	0	0	1	1	1,903252355793089E+005	2,4255559E+000	2,4264221E+000	-5,776484315434635E-003	1,000000000000000E+000	1,5505168E-003	42	-1,4016189E-005
2	0	0	1	1	1,905185350095520E+005	2,3095765E+000	2,3104389E+000	-6,860658789792737E-003	1,000000000000000E+000	3,0378913E-004	42	-1,5851132E-005
2	0	0	1	1	1,907095020394318E+005	2,1949964E+000	2,1958694E+000	-8,911631998707059E-003	2,000000000000000E+000	-1,2196592E-003	42	-1,9568781E-005
2	0	0	1	1	1,909028014696748E+005	2,0790167E+000	2,0797923E+000	-1,215703628109480E-002	2,000000000000000E+000	-3,2675071E-003	41	-2,5284109E-005
2	0	0	1	1	1,910961010999205E+005	1,9630370E+000	1,9638050E+000	-1,714349544085243E-002	2,000000000000000E+000	-6,1148885E-003	41	-3,3666482E-005
2	0	0	1	1	1,912894006301654E+005	1,8470575E+000	1,8478538E+000	-2,448451057869960E-002	2,000000000000000E+000	-1,0098578E-002	41	-4,5243796E-005
[...]
2	0	0	1	1	1,928337981718031E+005	1,0794917E+000	1,0802641E+000	-8,476967636974031E-002	2,000000000000000E+000	-2,1550511E-001	40	-9,1573638E-005
2	0	0	1	1	1,930270979020461E+005	1,1954715E+000	1,1961964E+000	-5,571407357913094E-002	2,000000000000000E+000	-2,2871664E-001	40	-6,6644978E-005
2	0	0	1	1	1,932203977322914E+005	1,3114513E+000	1,3123013E+000	-3,818029155210715E-002	2,000000000000000E+000	-2,3769827E-001	41	-5,0104045E-005
2	0	0	1	1	1,934136974625364E+005	1,4274309E+000	1,4281930E+000	-2,099406853334890E-002	2,000000000000000E+000	-2,4345571E-001	41	-2,9983581E-005
2	1	0	1	1	1,936069971927805E+005	1,5434107E+000	1,5441489E+000	1,167778959915029E-002	2,000000000000000E+000	-2,4485394E-001	41	1,8032246E-005
2	1	0	1	1	1,938002969230235E+005	1,6593901E+000	1,6601113E+000	2,161764716768300E-001	2,000000000000000E+000	-2,2861707E-001	40	3,5887701E-004
2	1	0	1	1	1,939935967532662E+005	1,7753698E+000	1,7760695E+000	4,714801408533713E-001	2,000000000000000E+000	-1,5726264E-001	40	8,3738152E-004
2	1	0	1	1	1,941868964835112E+005	1,8913497E+000	1,8920795E+000	2,709783008827243E-001	2,000000000000000E+000	-8,0246143E-002	40	5,1271246E-004
2	1	0	1	1	1,943801962137558E+005	2,0073290E+000	2,0080762E+000	9,221889837153771E-002	2,000000000000000E+000	-4,8602048E-002	40	1,8518258E-004
2	1	0	1	1	1,945736625440251E+005	2,1234090E+000	2,1241398E+000	4,730553010779925E-002	2,000000000000000E+000	-3,5983782E-002	41	1,0048356E-004
2	1	0	1	1	1,947669624742703E+005	2,2393885E+000	2,2400982E+000	3,381081262015859E-002	2,000000000000000E+000	-2,8298952E-002	41	7,5739539E-005
2	1	0	1	1	1,949602625045148E+005	2,3553684E+000	2,3561051E+000	2,791523751154656E-002	2,000000000000000E+000	-2,2363495E-002	41	6,5771230E-005
2	1	0	1	1	1,951535625347576E+005	2,4713480E+000	2,4721098E+000	2,505461780503215E-002	2,000000000000000E+000	-1,7215235E-002	41	6,1937768E-005
2	1	0	1	1	1,953468624650005E+005	2,5873277E+000	2,5881064E+000	2,262411233962769E-002	2,000000000000000E+000	-1,2584376E-002	41	5,8553611E-005
2	1	0	1	1	1,955401623952454E+005	2,7033074E+000	2,7040954E+000	2,105879601059114E-002	2,000000000000000E+000	-8,2748868E-003	41	5,6944991E-005
2	1	0	1	1	1,957334622254903E+005	2,8192866E+000	2,8201075E+000	2,116040115984294E-002	2,000000000000000E+000	-4,2162132E-003	41	5,9674607E-005
2	1	0	1	1	1,959267622557350E+005	2,9352670E+000	2,9360769E+000	2,087271518420097E-002	2,000000000000000E+000	-9,5700096E-005	41	6,1283899E-005
2	1	0	1	0	1,961172293855362E+005	2,9504640E+000	2,9512954E+000	7,055546286403536E-003	2,000000000000000E+000	3,0626741E-003	41	2,0823001E-005
2	1	0	1	0	1,963105289157792E+005	2,8344843E+000	2,8352792E+000	1,188883770579862E-003	2,000000000000000E+000	3,7095994E-003	42	3,3708175E-006
2	0	0	1	0	1,965038283460225E+005	2,7185047E+000	2,7193277E+000	-9,823612284200096E-004	2,000000000000000E+000	3,6733809E-003	42	-2,6713622E-006
2	0	0	1	0	1,966971277762658E+005	2,6025252E+000	2,6033857E+000	-3,540459862315964E-003	2,000000000000000E+000	3,2241724E-003	42	-9,2171822E-006
2	0	0	1	0	1,968904273065100E+005	2,4865456E+000	2,4874175E+000	-4,860792755546930E-003	2,000000000000000E+000	2,4065264E-003	42	-1,2090821E-005
2	0	0	1	0	1,970837270367546E+005	2,3705657E+000	2,3714063E+000	-6,202161500778347E-003	2,000000000000000E+000	1,2776096E-003	42	-1,4707845E-005
2	0	0	1	0	1,972770266669998E+005	2,2545857E+000	2,2554612E+000	-7,730534355250521E-003	2,000000000000000E+000	-8,8110959E-005	42	-1,7435921E-005
2	0	0	0	0	1,972851672682734E+005	2,2496376E+000	2,2505140E+000	-8,253315708412451E-003	2,000000000000000E+000	-1,5278613E-004	42	-1,8574203E-005