Folder: Randles-Sevcik/Dati/210416 (part 2)

File: CV_LTO-CB_04_CV_C05.mpt
EC-Lab ASCII FILE
Nb header lines : 57

Cyclic Voltammetry

Run on channel : 5 (SN 6809)
User : Seelab
Electrode connection : standard
Ewe ctrl range : min = 0,00 V, max = 5,00 V
Ewe,I filtering : 50 kHz
Safety Limits :
	Do not start on E overload
Channel : Grounded
Acquisition started on : 04/16/2021 18:38:45
Saved on :
	File : CV_LTO-CB_04_CV_C05.mpr
	Directory : C:\Users\labsuperfici\Desktop\Biologic\Users\Prisca Viviani\210416\
	Host : 10.78.33.0
Device : VSP-300 (SN 0638)
Address : USB
EC-Lab for windows v11.31 (software)
Internet server v11.30 (firmware)
Command interpretor v11.31 (firmware)
Electrode material :
Initial state :
Electrolyte :
Comments :
Cable : standard
Reference electrode : SCE Saturated Calomel Electrode (0,241 V)
Electrode surface area : 0,001 cm²
Characteristic mass : 0,001 g
Equivalent Weight : 0,000 g/eq.
Density : 0,000 g/cm3
Cycle Definition : Charge/Discharge alternance
Ei (V)              0,000
vs.                 Eoc
dE/dt               0,300
dE/dt unit          mV/s
E1 (V)              1,000
vs.                 Ref
Step percent        50
N                   10
E range min (V)     0,000
E range max (V)     5,000
I Range             Auto
I Range min         Unset
I Range max         Unset
I Range init        Unset
Bandwidth           8
E2 (V)              3,000
vs.                 Ref
nc cycles           1
Reverse Scan        1
Ef (V)              0,000
vs.                 Eoc

mode	ox/red	error	control changes	counter inc.	time/s	control/V	Ewe/V	<I>/mA	cycle number	(Q-Qo)/C	I Range	P/W
2	0	0	0	0	1,212049302423876E+005	2,0588205E+000	2,0595295E+000	-5,709758028388023E-003	1,000000000000000E+000	0,0000000E+000	42	-1,1759415E-005
2	0	0	1	0	1,215898234513463E+005	1,9433517E+000	1,9441198E+000	-1,204457566393419E-002	1,000000000000000E+000	-3,4639954E-003	41	-2,3416098E-005
2	0	0	1	0	1,219762158599775E+005	1,8274342E+000	1,8281928E+000	-2,043322863089832E-002	1,000000000000000E+000	-9,6467193E-003	41	-3,7355883E-005
2	0	0	1	0	1,223626081685585E+005	1,7115164E+000	1,7123005E+000	-3,322957835528129E-002	1,000000000000000E+000	-1,9847296E-002	41	-5,6899025E-005
2	0	0	1	0	1,227490005771457E+005	1,5955987E+000	1,5963709E+000	-5,229264302306280E-002	1,000000000000000E+000	-3,6134385E-002	41	-8,3478459E-005
2	0	0	1	0	1,231353929857779E+005	1,4796810E+000	1,4804239E+000	-8,803878423300415E-002	1,000000000000000E+000	-6,2356882E-002	41	-1,3033472E-004
2	0	0	1	0	1,235217852943728E+005	1,3637635E+000	1,3645161E+000	-1,420682663835100E-001	1,000000000000000E+000	-1,0730164E-001	40	-1,9385444E-004
2	0	0	1	0	1,239081775029465E+005	1,2478456E+000	1,2486271E+000	-1,536361434718627E-001	1,000000000000000E+000	-1,6602501E-001	40	-1,9183425E-004
2	0	0	1	0	1,242945698115784E+005	1,1319281E+000	1,1327163E+000	-1,323287681587813E-001	1,000000000000000E+000	-2,2179893E-001	40	-1,4989096E-004
2	0	0	1	0	1,246809622201856E+005	1,0160103E+000	1,0167885E+000	-1,080163593961332E-001	1,000000000000000E+000	-2,6805279E-001	40	-1,0982979E-004
2	0	0	1	0	1,250626919298682E+005	1,0984519E+000	1,0992473E+000	-5,165937429405065E-002	1,000000000000000E+000	-2,9723954E-001	40	-5,6786430E-005
2	0	0	1	0	1,254490849384724E+005	1,2143694E+000	1,2151372E+000	-2,874219916556803E-002	1,000000000000000E+000	-3,1224135E-001	41	-3,4925717E-005
2	0	0	1	0	1,258354780471046E+005	1,3302872E+000	1,3310457E+000	-1,569288393248010E-002	1,000000000000000E+000	-3,2069764E-001	41	-2,0887946E-005
2	0	0	1	0	1,262218710556808E+005	1,4462049E+000	1,4469639E+000	-1,639516036384837E-003	1,000000000000000E+000	-3,2416233E-001	42	-2,3723205E-006
2	1	0	1	0	1,266082642642718E+005	1,5621226E+000	1,5628595E+000	1,905204726461467E-002	1,000000000000000E+000	-3,2112700E-001	41	2,9775674E-005
2	1	0	1	0	1,269946575729056E+005	1,6780403E+000	1,6788229E+000	8,702163438764135E-002	1,000000000000000E+000	-3,0318171E-001	41	1,4609391E-004
2	1	0	1	0	1,273810505814929E+005	1,7939577E+000	1,7947202E+000	1,806996821896396E-001	1,000000000000000E+000	-2,5107941E-001	40	3,2430535E-004
2	1	0	1	0	1,277674436900716E+005	1,9098758E+000	1,9106154E+000	2,204550166787462E-001	1,000000000000000E+000	-1,7029126E-001	40	4,2120475E-004
2	1	0	1	0	1,281538368987057E+005	2,0257931E+000	2,0265284E+000	1,493625232877229E-001	1,000000000000000E+000	-9,6070267E-002	40	3,0268737E-004
2	1	0	1	0	1,285402306073045E+005	2,1417108E+000	2,1424167E+000	6,938598087123338E-002	1,000000000000000E+000	-5,5562433E-002	40	1,4865368E-004
2	1	0	1	0	1,289266240158769E+005	2,2576287E+000	2,2583613E+000	3,718388750450563E-002	1,000000000000000E+000	-3,5962116E-002	41	8,3974657E-005
2	1	0	1	0	1,293130169245045E+005	2,3735464E+000	2,3742766E+000	2,413877761594635E-002	1,000000000000000E+000	-2,4423841E-002	41	5,7312136E-005
2	1	0	1	0	1,296994099331177E+005	2,4894640E+000	2,4901888E+000	1,788916084747678E-002	1,000000000000000E+000	-1,6413702E-002	41	4,4547389E-005
2	1	0	1	0	1,300858028416889E+005	2,6053817E+000	2,6060896E+000	1,376079720762496E-002	1,000000000000000E+000	-1,0331448E-002	41	3,5861871E-005
2	1	0	1	0	1,304721962503039E+005	2,7212996E+000	2,7220321E+000	1,127975688077462E-002	1,000000000000000E+000	-5,4986090E-003	41	3,0703861E-005
2	1	0	1	0	1,308585892589302E+005	2,8372171E+000	2,8379138E+000	1,127119201655002E-002	1,000000000000000E+000	-1,2636977E-003	41	3,1986670E-005
2	1	0	1	0	1,312449822355115E+005	2,9531348E+000	2,9538524E+000	1,014698371022836E-002	1,000000000000000E+000	2,9622614E-003	41	2,9972693E-005
2	1	0	1	1	1,316260448951330E+005	2,9324496E+000	2,9331448E+000	3,654541591897584E-003	1,000000000000000E+000	5,7664365E-003	42	1,0719300E-005
2	1	0	1	1	1,320124364555882E+005	2,8165319E+000	2,8172548E+000	1,383809621541688E-003	1,000000000000000E+000	6,6473805E-003	42	3,8985445E-006
2	1	0	1	1	1,323988280160432E+005	2,7006140E+000	2,7013502E+000	4,751684781756204E-004	1,000000000000000E+000	6,9814236E-003	43	1,2835965E-006
2	0	0	1	1	1,327878846769170E+005	2,5838969E+000	2,5846214E+000	-4,083143907858819E-004	1,000000000000000E+000	6,9603198E-003	43	-1,0553381E-006
2	0	0	1	1	1,331742765373727E+005	2,4679794E+000	2,4687021E+000	-1,172067931104887E-003	1,000000000000000E+000	6,6509293E-003	42	-2,8934865E-006
2	0	0	1	1	1,335606680978278E+005	2,3520617E+000	2,3527737E+000	-2,034727971107798E-003	1,000000000000000E+000	6,0231374E-003	42	-4,7872545E-006
2	0	0	1	1	1,339470596582834E+005	2,2361441E+000	2,2368777E+000	-3,381401785566335E-003	1,000000000000000E+000	4,9823234E-003	42	-7,5637822E-006
2	0	0	1	1	1,343334515187384E+005	2,1202261E+000	2,1209469E+000	-5,739494335400337E-003	1,000000000000000E+000	3,2477460E-003	42	-1,2173163E-005
2	0	0	1	1	1,347198434791936E+005	2,0043085E+000	2,0050459E+000	-9,685004834835156E-003	2,000000000000000E+000	3,1732061E-004	42	-1,9418880E-005
2	0	0	1	1	1,351062362396488E+005	1,8883910E+000	1,8891202E+000	-1,610495871184822E-002	2,000000000000000E+000	-4,5733019E-003	41	-3,0424204E-005
2	0	0	1	1	1,354926285001037E+005	1,7724731E+000	1,7732067E+000	-2,639401823645671E-002	2,000000000000000E+000	-1,2651424E-002	41	-4,6802052E-005
2	0	0	1	1	1,358790212605596E+005	1,6565554E+000	1,6572992E+000	-4,230398438840521E-002	2,000000000000000E+000	-2,5739875E-002	41	-7,0110356E-005
2	0	0	1	1	1,362654137210157E+005	1,5406381E+000	1,5413710E+000	-6,784391926721245E-002	2,000000000000000E+000	-4,6503864E-002	41	-1,0457265E-004
[...]
2	0	0	1	1	1,389654993434764E+005	1,2693305E+000	1,2700528E+000	-2,085847657862866E-002	2,000000000000000E+000	-3,1766701E-001	41	-2,6491367E-005
2	0	0	1	1	1,393518926039315E+005	1,3852482E+000	1,3859812E+000	-8,576681841634053E-003	2,000000000000000E+000	-3,2337934E-001	41	-1,1887119E-005
2	1	0	1	1	1,397382859643865E+005	1,5011660E+000	1,5019116E+000	7,742028690110220E-003	2,000000000000000E+000	-3,2372656E-001	42	1,1627843E-005
2	1	0	1	1	1,401246790248435E+005	1,6170834E+000	1,6178228E+000	4,311727030763202E-002	2,000000000000000E+000	-3,1560087E-001	41	6,9756104E-005
2	1	0	1	1	1,405110725853001E+005	1,7330014E+000	1,7337147E+000	1,474929277176971E-001	2,000000000000000E+000	-2,7968353E-001	40	2,5571065E-004
2	1	0	1	1	1,408974659457558E+005	1,8489190E+000	1,8496290E+000	2,415061377357581E-001	2,000000000000000E+000	-2,0203152E-001	40	4,4669677E-004
2	1	0	1	1	1,412838592062109E+005	1,9648367E+000	1,9655695E+000	1,901886189439825E-001	2,000000000000000E+000	-1,1333795E-001	40	3,7382895E-004
2	1	0	1	1	1,416702526666657E+005	2,0807540E+000	2,0814800E+000	8,718163476598959E-002	2,000000000000000E+000	-6,1344184E-002	40	1,8146684E-004
2	1	0	1	1	1,420569796271757E+005	2,1967719E+000	2,1974885E+000	4,336393152034923E-002	2,000000000000000E+000	-3,7538137E-002	41	9,5291740E-005
2	1	0	1	1	1,424433727876311E+005	2,3126895E+000	2,3134048E+000	2,702193911739117E-002	2,000000000000000E+000	-2,4353016E-002	41	6,2512685E-005
2	1	0	1	1	1,428297658480860E+005	2,4286070E+000	2,4293318E+000	1,929397709377532E-002	2,000000000000000E+000	-1,5563925E-002	41	4,6871472E-005
2	1	0	1	1	1,432161590085409E+005	2,5445249E+000	2,5452280E+000	1,483841092893018E-002	2,000000000000000E+000	-8,9889811E-003	41	3,7767139E-005
2	1	0	1	1	1,436025524689965E+005	2,6604426E+000	2,6611257E+000	1,191582693768092E-002	2,000000000000000E+000	-3,8558608E-003	41	3,1709515E-005
2	1	0	1	1	1,439889456294533E+005	2,7763608E+000	2,7770519E+000	1,028031759183896E-002	2,000000000000000E+000	3,7329557E-004	41	2,8548975E-005
2	1	0	1	1	1,443753386899102E+005	2,8922784E+000	2,8929732E+000	1,042684694139301E-002	2,000000000000000E+000	4,4816588E-003	41	3,0164589E-005
2	1	0	1	0	1,447560690494785E+005	2,9934063E+000	2,9941223E+000	7,194543546769877E-003	2,000000000000000E+000	8,2085300E-003	41	2,1541344E-005
2	1	0	1	0	1,451424610099345E+005	2,8774891E+000	2,8781798E+000	2,174264822216672E-003	2,000000000000000E+000	9,6884882E-003	42	6,2579252E-006
2	1	0	1	0	1,455288524703900E+005	2,7615707E+000	2,7622478E+000	8,489227412423906E-004	2,000000000000000E+000	1,0208879E-002	42	2,3449350E-006
2	0	0	1	0	1,459159104309487E+005	2,6454532E+000	2,6461375E+000	-3,764282464604790E-005	2,000000000000000E+000	1,0356810E-002	43	-9,9608087E-008
2	0	0	1	0	1,463023023914043E+005	2,5295355E+000	2,5301974E+000	-7,651777900041321E-004	2,000000000000000E+000	1,0165066E-002	43	-1,9360509E-006
2	0	0	1	0	1,466886938518602E+005	2,4136183E+000	2,4143116E+000	-1,587913468333053E-003	2,000000000000000E+000	9,6919462E-003	42	-3,8337180E-006
2	0	0	1	0	1,470750854123160E+005	2,2977002E+000	2,2983868E+000	-2,622378853661553E-003	2,000000000000000E+000	8,8783428E-003	42	-6,0272409E-006
2	0	0	1	0	1,474614773727725E+005	2,1817827E+000	2,1824849E+000	-4,400788416522555E-003	2,000000000000000E+000	7,5357463E-003	42	-9,6046542E-006
2	0	0	1	0	1,478478696332285E+005	2,0658646E+000	2,0665710E+000	-7,552159474690720E-003	2,000000000000000E+000	5,2588214E-003	42	-1,5607075E-005
2	0	0	1	0	1,478711827368760E+005	2,0588205E+000	2,0594761E+000	-7,910443610093382E-003	2,000000000000000E+000	5,0786505E-003	42	-1,6291369E-005

File: CV_LTO-CB_05_CV_C05.mpt
EC-Lab ASCII FILE
Nb header lines : 57

Cyclic Voltammetry

Run on channel : 5 (SN 6809)
User : Seelab
Electrode connection : standard
Ewe ctrl range : min = 0,00 V, max = 5,00 V
Ewe,I filtering : 50 kHz
Safety Limits :
	Do not start on E overload
Channel : Grounded
Acquisition started on : 04/16/2021 18:38:45
Saved on :
	File : CV_LTO-CB_05_CV_C05.mpr
	Directory : C:\Users\labsuperfici\Desktop\Biologic\Users\Prisca Viviani\210416\
	Host : 10.78.33.0
Device : VSP-300 (SN 0638)
Address : USB
EC-Lab for windows v11.31 (software)
Internet server v11.30 (firmware)
Command interpretor v11.31 (firmware)
Electrode material :
Initial state :
Electrolyte :
Comments :
Cable : standard
Reference electrode : SCE Saturated Calomel Electrode (0,241 V)
Electrode surface area : 0,001 cm²
Characteristic mass : 0,001 g
Equivalent Weight : 0,000 g/eq.
Density : 0,000 g/cm3
Cycle Definition : Charge/Discharge alternance
Ei (V)              0,000
vs.                 Eoc
dE/dt               0,400
dE/dt unit          mV/s
E1 (V)              1,000
vs.                 Ref
Step percent        50
N                   10
E range min (V)     0,000
E range max (V)     5,000
I Range             Auto
I Range min         Unset
I Range max         Unset
I Range init        Unset
Bandwidth           8
E2 (V)              3,000
vs.                 Ref
nc cycles           1
Reverse Scan        1
Ef (V)              0,000
vs.                 Eoc

mode	ox/red	error	control changes	counter inc.	time/s	control/V	Ewe/V	<I>/mA	cycle number	(Q-Qo)/C	I Range	P/W
2	0	0	1	0	1,478715323369295E+005	2,0588205E+000	2,0594685E+000	-8,206616155803204E-003	1,000000000000000E+000	0,0000000E+000	42	-1,6901267E-005
2	0	0	1	0	1,481602020820956E+005	1,9433522E+000	1,9440470E+000	-1,583449058424991E-002	1,000000000000000E+000	-3,4680583E-003	41	-3,0782994E-005
2	0	0	1	0	1,484499963274379E+005	1,8274342E+000	1,8281547E+000	-2,659005615095827E-002	1,000000000000000E+000	-9,5183710E-003	41	-4,8610735E-005
2	0	0	1	0	1,487397903727791E+005	1,7115164E+000	1,7122461E+000	-4,355372817389364E-002	1,000000000000000E+000	-1,9516230E-002	41	-7,4574702E-005
2	0	0	1	0	1,490295845181197E+005	1,5955987E+000	1,5962772E+000	-6,920570266195947E-002	1,000000000000000E+000	-3,5619169E-002	41	-1,1047149E-004
2	0	0	1	0	1,493193784634611E+005	1,4796813E+000	1,4803867E+000	-1,161694627803018E-001	1,000000000000000E+000	-6,1672941E-002	40	-1,7197573E-004
2	0	0	1	0	1,496091727088037E+005	1,3637633E+000	1,3644811E+000	-1,717775459500603E-001	1,000000000000000E+000	-1,0427174E-001	40	-2,3438722E-004
2	0	0	1	0	1,498989665541460E+005	1,2478458E+000	1,2485493E+000	-1,826648720251936E-001	1,000000000000000E+000	-1,5667258E-001	40	-2,2806610E-004
2	0	0	1	0	1,501887607994885E+005	1,1319281E+000	1,1326344E+000	-1,619830305153698E-001	1,000000000000000E+000	-2,0708421E-001	40	-1,8346755E-004
2	0	0	1	0	1,504785547448294E+005	1,0160103E+000	1,0167313E+000	-1,360220223733117E-001	1,000000000000000E+000	-2,5017279E-001	40	-1,3829784E-004
2	0	0	1	0	1,507648521896233E+005	1,0984519E+000	1,0991557E+000	-6,795922622233597E-002	1,000000000000000E+000	-2,7823731E-001	40	-7,4697768E-005
2	0	0	1	0	1,510546467349646E+005	1,2143695E+000	1,2150383E+000	-3,940487786695712E-002	1,000000000000000E+000	-2,9329994E-001	41	-4,7878435E-005
2	0	0	1	0	1,513444411803058E+005	1,3302872E+000	1,3309958E+000	-2,229660732857741E-002	1,000000000000000E+000	-3,0213299E-001	41	-2,9676690E-005
2	0	0	1	0	1,516342356256485E+005	1,4462049E+000	1,4468737E+000	-4,059068892665160E-003	1,000000000000000E+000	-3,0605093E-001	42	-5,8729597E-006
2	1	0	1	0	1,519240301709905E+005	1,5621226E+000	1,5628072E+000	2,268893773954050E-002	1,000000000000000E+000	-3,0367067E-001	41	3,5458434E-005
2	1	0	1	0	1,522138249163332E+005	1,6780401E+000	1,6787541E+000	1,120294787824173E-001	1,000000000000000E+000	-2,8703246E-001	40	1,8806994E-004
2	1	0	1	0	1,525036191616748E+005	1,7939578E+000	1,7946546E+000	2,581488374711576E-001	1,000000000000000E+000	-2,3355199E-001	40	4,6328799E-004
2	1	0	1	0	1,527934138070159E+005	1,9098756E+000	1,9105958E+000	2,907417911080454E-001	1,000000000000000E+000	-1,4842536E-001	40	5,5549003E-004
2	1	0	1	0	1,530832082523564E+005	2,0257931E+000	2,0264866E+000	1,643465459854837E-001	1,000000000000000E+000	-8,1558801E-002	40	3,3304607E-004
2	1	0	1	0	1,533730035976977E+005	2,1417110E+000	2,1423631E+000	7,674968970150373E-002	1,000000000000000E+000	-4,8407108E-002	40	1,6442570E-004
2	1	0	1	0	1,536630483430799E+005	2,2577286E+000	2,2583902E+000	4,340096573744682E-002	1,000000000000000E+000	-3,1720150E-002	41	9,8016317E-005
2	1	0	1	0	1,539528429884221E+005	2,3736460E+000	2,3743308E+000	2,919353969574556E-002	1,000000000000000E+000	-2,1429202E-002	41	6,9315116E-005
2	1	0	1	0	1,542426380337644E+005	2,4895639E+000	2,4902318E+000	2,206355516459859E-002	1,000000000000000E+000	-1,4070556E-002	41	5,4943364E-005
2	1	0	1	0	1,545324329791069E+005	2,6054816E+000	2,6061277E+000	1,727052707483434E-002	1,000000000000000E+000	-8,4032426E-003	41	4,5009201E-005
2	1	0	1	0	1,548222282244479E+005	2,7213991E+000	2,7220623E+000	1,419063453455111E-002	1,000000000000000E+000	-3,8341051E-003	41	3,8627793E-005
2	1	0	1	0	1,551120228697890E+005	2,8373170E+000	2,8379941E+000	1,381325572832656E-002	1,000000000000000E+000	1,5359967E-004	41	3,9201939E-005
2	1	0	1	0	1,554018179151299E+005	2,9532344E+000	2,9539096E+000	1,240573920260338E-002	1,000000000000000E+000	4,0026391E-003	41	3,6645433E-005
2	1	0	1	1	1,556873650598079E+005	2,9324493E+000	2,9331257E+000	4,411299726158785E-003	1,000000000000000E+000	6,5431222E-003	42	1,2938896E-005
2	1	0	1	1	1,559771591051491E+005	2,8165317E+000	2,8171899E+000	1,676104354183005E-003	1,000000000000000E+000	7,3376689E-003	42	4,7219041E-006
2	1	0	1	1	1,562669531504916E+005	2,7006137E+000	2,7012904E+000	5,246613062721249E-004	1,000000000000000E+000	7,6235798E-003	43	1,4172625E-006
2	0	0	1	1	1,565567469958342E+005	2,5846965E+000	2,5853658E+000	-6,508845393019842E-004	1,000000000000000E+000	7,5725317E-003	43	-1,6827746E-006
2	0	0	1	1	1,568465413411758E+005	2,4687788E+000	2,4694264E+000	-1,559107144735485E-003	1,000000000000000E+000	7,2502000E-003	42	-3,8501003E-006
2	0	0	1	1	1,571363354865173E+005	2,3528609E+000	2,3535414E+000	-2,649079590249702E-003	1,000000000000000E+000	6,6269753E-003	42	-6,2347185E-006
2	0	0	1	1	1,574261295318571E+005	2,2369432E+000	2,2375882E+000	-4,418707954589835E-003	1,000000000000000E+000	5,6028911E-003	42	-9,8872488E-006
2	0	0	1	1	1,577159233771993E+005	2,1210256E+000	2,1216550E+000	-7,510139381582279E-003	1,000000000000000E+000	3,8955563E-003	42	-1,5933925E-005
2	0	0	1	1	1,580029696221118E+005	2,0062070E+000	2,0068636E+000	-1,269817559588164E-002	2,000000000000000E+000	1,0383829E-003	41	-2,5483507E-005
2	0	0	1	1	1,582927637674540E+005	1,8902894E+000	1,8909615E+000	-2,123837419699881E-002	2,000000000000000E+000	-3,7925388E-003	41	-4,0160947E-005
2	0	0	1	1	1,585825578127964E+005	1,7743717E+000	1,7750523E+000	-3,533989696137529E-002	2,000000000000000E+000	-1,1844551E-002	41	-6,2730163E-005
2	0	0	1	1	1,588723519581375E+005	1,6584541E+000	1,6591040E+000	-5,780384603627975E-002	2,000000000000000E+000	-2,5142768E-002	41	-9,5902593E-005
2	0	0	1	1	1,591621462034779E+005	1,5425364E+000	1,5431753E+000	-9,547179720043064E-002	2,000000000000000E+000	-4,6737842E-002	41	-1,4732972E-004
[...]
2	0	0	1	1	1,611869585202835E+005	1,2673317E+000	1,2680205E+000	-2,858547790737120E-002	2,000000000000000E+000	-3,0217656E-001	41	-3,6246973E-005
2	0	0	1	1	1,614767529656251E+005	1,3832496E+000	1,3839481E+000	-1,266411540240669E-002	2,000000000000000E+000	-3,0816838E-001	41	-1,7526478E-005
2	1	0	1	1	1,617665474109674E+005	1,4991672E+000	1,4998907E+000	8,131087516972973E-003	2,000000000000000E+000	-3,0900830E-001	42	1,2195743E-005
2	1	0	1	1	1,620563419563096E+005	1,6150849E+000	1,6157640E+000	5,124373005242278E-002	2,000000000000000E+000	-3,0182439E-001	41	8,2797778E-005
2	1	0	1	1	1,623461366016525E+005	1,7310026E+000	1,7317089E+000	1,974901794519970E-001	2,000000000000000E+000	-2,6743722E-001	40	3,4199550E-004
2	1	0	1	1	1,626359310469935E+005	1,8469203E+000	1,8475916E+000	3,237655965892090E-001	2,000000000000000E+000	-1,8778448E-001	40	5,9818663E-004
2	1	0	1	1	1,629257255923348E+005	1,9628382E+000	1,9635556E+000	2,259437514860072E-001	2,000000000000000E+000	-1,0429583E-001	40	4,4365312E-004
2	1	0	1	1	1,632155207376755E+005	2,0787556E+000	2,0794415E+000	1,075955827849366E-001	2,000000000000000E+000	-5,7616789E-002	40	2,2373872E-004
2	1	0	1	1	1,635053153830175E+005	2,1946731E+000	2,1953526E+000	5,524442067291946E-002	2,000000000000000E+000	-3,5246614E-002	40	1,2128098E-004
2	1	0	1	1	1,637953601283991E+005	2,3106906E+000	2,3113656E+000	3,453510527248627E-002	2,000000000000000E+000	-2,2611631E-002	41	7,9823258E-005
2	1	0	1	1	1,640851550737410E+005	2,4266088E+000	2,4272807E+000	2,477912840920293E-002	2,000000000000000E+000	-1,4164797E-002	41	6,0145900E-005
2	1	0	1	1	1,643749504190835E+005	2,5425265E+000	2,5432222E+000	1,906565689016504E-002	2,000000000000000E+000	-7,8277923E-003	41	4,8488200E-005
2	1	0	1	1	1,646647450644262E+005	2,6584439E+000	2,6590993E+000	1,533963551275135E-002	2,000000000000000E+000	-2,8668924E-003	41	4,0789615E-005
2	1	0	1	1	1,649545397097669E+005	2,7743616E+000	2,7750413E+000	1,306548624319672E-002	2,000000000000000E+000	1,2001051E-003	41	3,6257265E-005
2	1	0	1	1	1,652443347551082E+005	2,8902793E+000	2,8909421E+000	1,288523497093741E-002	2,000000000000000E+000	5,0409916E-003	41	3,7250469E-005
2	1	0	1	0	1,655298823997853E+005	2,9954047E+000	2,9960909E+000	9,059987633001781E-003	2,000000000000000E+000	8,5123051E-003	41	2,7144546E-005
2	1	0	1	0	1,658196766451262E+005	2,8794868E+000	2,8801751E+000	2,625343228552582E-003	2,000000000000000E+000	9,8678386E-003	42	7,5614485E-006
2	1	0	1	0	1,661094707904684E+005	2,7635694E+000	2,7642317E+000	9,620432952114645E-004	2,000000000000000E+000	1,0326094E-002	42	2,6593107E-006
2	0	0	1	0	1,663992651358105E+005	2,6476514E+000	2,6483302E+000	-9,030186901823312E-005	2,000000000000000E+000	1,0441408E-002	43	-2,3914916E-007
2	0	0	1	0	1,666890589811536E+005	2,5317340E+000	2,5324016E+000	-1,031060931587840E-003	2,000000000000000E+000	1,0228467E-002	42	-2,6110604E-006
2	0	0	1	0	1,669788530264948E+005	2,4158161E+000	2,4164834E+000	-2,080798658247496E-003	2,000000000000000E+000	9,7536091E-003	42	-5,0282156E-006
2	0	0	1	0	1,672686470718356E+005	2,2998986E+000	2,3005550E+000	-3,407534033049352E-003	2,000000000000000E+000	8,9526400E-003	42	-7,8392195E-006
2	0	0	1	0	1,675584412171762E+005	2,1839807E+000	2,1846361E+000	-5,715968015991217E-003	2,000000000000000E+000	7,6372838E-003	42	-1,2487310E-005
2	0	0	1	0	1,678482355625191E+005	2,0680630E+000	2,0687413E+000	-9,765748128484561E-003	2,000000000000000E+000	5,4158196E-003	42	-2,0202806E-005
2	0	0	1	0	1,678712166661150E+005	2,0588205E+000	2,0595219E+000	-1,037586144405245E-002	2,000000000000000E+000	5,1843328E-003	41	-2,1369315E-005